ax,ay,az,mx,my,mz
-0.0969686,0.148642,-1.02146,-0.13622,0.2737,-0.17024
-0.0936042,0.155074,-1.02489,-0.13258,0.27356,-0.1652
-0.0699314,0.135973,-1.0219,-0.133,0.2716,-0.16926
-0.0228916,0.11057,-1.00167,-0.13272,0.27048,-0.16674
0.0227413,0.0813704,-0.974658,-0.13006,0.2646,-0.16758
0.0378503,0.0227005,-0.953433,-0.13188,0.26572,-0.16254
0.0356482,-0.0223783,-0.938089,-0.13146,0.26208,-0.16184
0.0152174,-0.0416166,-0.918838,-0.12894,0.2646,-0.16184
-0.0036842,-0.038193,-0.914873,-0.126,0.26012,-0.16324
-0.0200778,-0.0163943,-0.913051,-0.12782,0.25984,-0.16086
-0.0434448,0.0389044,-0.933215,-0.13188,0.26208,-0.16492
-0.0483384,0.0796322,-0.944322,-0.13034,0.26068,-0.16716
-0.0673623,0.110495,-0.969148,-0.13174,0.26138,-0.17304
-0.0753144,0.154406,-0.975844,-0.12572,0.26306,-0.17514
-0.0757426,0.176516,-0.972965,-0.12656,0.26292,-0.17752
-0.0279687,0.198091,-0.988194,-0.12418,0.2667,-0.1806
0.0311216,0.290288,-1.09319,-0.12474,0.2639,-0.17864
0.0581587,0.203448,-1.06681,-0.12404,0.2688,-0.1708
0.0650098,0.106128,-0.983635,-0.1239,0.26656,-0.17626
0.0655603,0.125421,-0.95557,-0.12362,0.2681,-0.1736
0.0339354,0.136864,-0.988497,-0.12558,0.26642,-0.17738
-0.0159182,0.121475,-0.987079,-0.12586,0.2618,-0.1764
-0.0527426,0.144063,-1.00348,-0.1218,0.26432,-0.1736
-0.0597772,0.139651,-1.00022,-0.12502,0.26292,-0.17808
-0.0290698,0.126064,-0.985697,-0.1267,0.26068,-0.17654
-0.0157347,0.107388,-0.979317,-0.1274,0.25858,-0.18046
0.00432908,0.14843,-0.981321,-0.12474,0.25732,-0.17626
-0.0187932,0.183456,-0.99458,-0.12614,0.25886,-0.17374
-0.0323118,0.169059,-1.01105,-0.12516,0.25774,-0.1785
-0.041732,0.153437,-1.01953,-0.12264,0.2576,-0.16912
-0.0554953,0.116991,-1.00311,-0.12054,0.2576,-0.1708
-0.0544554,0.110928,-0.987648,-0.1246,0.26082,-0.16632
-0.0430777,0.118648,-0.992752,-0.1246,0.2569,-0.16912
-0.0162241,0.130049,-0.985976,-0.12488,0.25564,-0.17178
-0.0117587,0.131459,-1.00207,-0.12348,0.25844,-0.17458
-0.0167746,0.132438,-1.01226,-0.126,0.25914,-0.1722
-0.0383065,0.0687947,-1.03368,-0.12908,0.25634,-0.17906
0.00934503,0.149963,-1.0119,-0.12572,0.25914,-0.1715
-0.0136549,0.12809,-0.990752,-0.12502,0.25718,-0.17794
-0.0420378,0.107563,-0.972948,-0.12166,0.25592,-0.17556
-0.048583,0.0895542,-0.964251,-0.12376,0.2576,-0.17948
-0.0439341,0.0954355,-0.96359,-0.12446,0.25284,-0.17836
-0.0390405,0.111668,-0.988179,-0.1225,0.2534,-0.17528
-0.0293756,0.142907,-1.00617,-0.12306,0.25004,-0.17444
-0.0397134,0.152642,-1.00816,-0.1204,0.25298,-0.17178
-0.0394687,0.158889,-1.00095,-0.11886,0.25354,-0.17248
-0.0320059,0.156503,-0.986662,-0.11998,0.25102,-0.17486
-0.0425272,0.169851,-0.98553,-0.11522,0.25228,-0.18018
-0.0472985,0.186203,-0.987226,-0.11788,0.24794,-0.17948
-0.0441176,0.193737,-0.978796,-0.11788,0.24598,-0.17612
-0.0508463,0.182404,-0.982326,-0.11914,0.245,-0.16982
-0.0521921,0.176157,-0.983424,-0.11732,0.2478,-0.17948
-0.0438118,0.183509,-0.975558,-0.11564,0.24906,-0.17304
-0.0227693,0.1886,-0.97268,-0.11718,0.24402,-0.17388
-0.0200778,0.193929,-0.97605,-0.1176,0.2464,-0.1757
-0.024849,0.191355,-0.985575,-0.11298,0.2492,-0.17234
-0.0247267,0.177452,-0.983499,-0.11424,0.24346,-0.17402
-0.0424049,0.193983,-0.988644,-0.11242,0.24108,-0.1785
-0.0696867,0.202059,-0.981843,-0.1141,0.24066,-0.17472
-0.0857744,0.206034,-0.978802,-0.11284,0.24178,-0.17402
-0.087426,0.216201,-0.981975,-0.1127,0.23968,-0.17374
-0.0842452,0.218958,-0.987975,-0.11102,0.23898,-0.18172
-0.0727452,0.214491,-0.991064,-0.11144,0.2359,-0.17752
-0.0476655,0.215724,-0.988687,-0.10822,0.23534,-0.17346
-0.0194661,0.196195,-0.992008,-0.10794,0.23296,-0.1834
-0.00980121,0.190135,-0.985922,-0.10542,0.23604,-0.17682
-0.0129821,0.181743,-0.980229,-0.10402,0.23198,-0.1806
-0.0367772,0.186329,-0.983525,-0.1078,0.23282,-0.18018
-0.0734793,0.180498,-0.98471,-0.10654,0.23114,-0.18144
-0.108713,0.18704,-0.992132,-0.10654,0.23086,-0.18116
-0.116482,0.204554,-0.99113,-0.10304,0.2282,-0.17738
-0.0904234,0.210933,-0.985697,-0.105,0.22666,-0.17766
-0.0560458,0.195755,-0.976318,-0.10402,0.22344,-0.1827
-0.0223411,0.177269,-0.973968,-0.10374,0.22526,-0.18298
-0.00802728,0.167107,-0.972725,-0.10374,0.22358,-0.18158
-0.017264,0.157059,-0.981444,-0.09982,0.22022,-0.17934
-0.0370831,0.166117,-0.992699,-0.09968,0.224,-0.18354
-0.0602665,0.171744,-0.99294,-0.0966,0.2205,-0.18032
-0.074825,0.174924,-0.995345,-0.0994,0.21812,-0.17654
-0.0829606,0.166225,-0.99025,-0.09506,0.2135,-0.17402
-0.0838782,0.169225,-0.977775,-0.09576,0.2191,-0.17682
-0.0504181,0.177137,-0.977926,-0.09352,0.217,-0.18172
-0.0566575,0.165376,-0.977483,-0.09884,0.21434,-0.17626
-0.0523144,0.172053,-0.984769,-0.09646,0.21,-0.17262
-0.0495618,0.153619,-0.989732,-0.09758,0.20972,-0.1715
-0.050724,0.12079,-0.987656,-0.09394,0.21028,-0.17458
-0.062591,0.10284,-0.980779,-0.09338,0.20384,-0.16604
-0.0745803,0.115147,-0.981294,-0.09282,0.20188,-0.17192
-0.0855909,0.128863,-0.982852,-0.09422,0.20636,-0.16828
-0.0851627,0.14638,-0.981688,-0.09436,0.20062,-0.16716
-0.0734793,0.1511,-0.989178,-0.09352,0.20132,-0.16688
-0.0479713,0.135735,-0.984665,-0.0903,0.20286,-0.16996
-0.0405698,0.120303,-0.976801,-0.0924,0.20034,-0.16744
-0.0387958,0.111974,-0.977235,-0.0938,0.19684,-0.17024
-0.0513969,0.119442,-0.980073,-0.0896,0.20104,-0.16898
-0.0750697,0.129908,-0.968329,-0.08736,0.20286,-0.16618
-0.0860803,0.124575,-0.980344,-0.091,0.20272,-0.16996
-0.0849792,0.124331,-0.978758,-0.0889,0.2002,-0.16548
-0.0706654,0.131501,-0.976839,-0.08288,0.19922,-0.16632
-0.0645484,0.134443,-0.98193,-0.09044,0.19446,-0.16758
-0.0634474,0.137996,-0.981199,-0.08414,0.19544,-0.16576
-0.0649154,0.126052,-0.98352,-0.0854,0.19768,-0.17318
-0.0653436,0.113864,-0.983215,-0.08526,0.19334,-0.17192
-0.0682798,0.115578,-0.994396,-0.07966,0.19544,-0.16772
-0.0782505,0.11239,-0.998893,-0.08036,0.19012,-0.1673
-0.0822878,0.118513,-1.00389,-0.0819,0.19586,-0.16338
-0.0796574,0.12127,-0.9888,-0.07924,0.19222,-0.16478
-0.0758649,0.117842,-0.970408,-0.08358,0.19446,-0.16562
-0.0806973,0.111654,-0.987515,-0.08134,0.19586,-0.16464
-0.0802691,0.114226,-0.99369,-0.0812,0.19432,-0.16632
-0.0843675,0.127516,-1.00804,-0.0812,0.19278,-0.16744
-0.0872425,0.14595,-1.01378,-0.08148,0.19306,-0.1631
-0.0836335,0.129905,-1.00205,-0.07938,0.18718,-0.16324
-0.0776388,0.114411,-0.992903,-0.07742,0.19096,-0.16548
-0.0649766,0.11613,-0.990125,-0.07406,0.19292,-0.1708
-0.066567,0.120356,-0.99764,-0.07518,0.18844,-0.16212
-0.0685857,0.104859,-0.996903,-0.07784,0.18746,-0.16716
-0.0812479,0.114532,-0.997601,-0.07742,0.18606,-0.16618
-0.0918915,0.130392,-0.997324,-0.07546,0.1883,-0.16772
-0.0910351,0.0913165,-0.991403,-0.0749,0.1841,-0.16534
-0.0803915,0.102896,-0.99357,-0.07266,0.18396,-0.1631
-0.0698091,0.105778,-0.991336,-0.07056,0.18004,-0.16618
-0.0717665,0.0867292,-0.992435,-0.07308,0.182,-0.1666
-0.0738463,0.0743566,-0.97684,-0.07056,0.18046,-0.16506
-0.0892,0.0657157,-0.961087,-0.06776,0.17444,-0.16828
-0.112689,0.107907,-0.968719,-0.06762,0.17822,-0.16464
-0.0821042,0.11686,-0.987571,-0.06874,0.18228,-0.16394
-0.0717053,0.110432,-0.996221,-0.06916,0.18438,-0.16758
-0.0684021,0.0981836,-0.998617,-0.06874,0.17794,-0.16338
-0.0660777,0.0795652,-0.980957,-0.06916,0.1764,-0.16408
-0.0815537,0.0651057,-0.974987,-0.0623,0.17878,-0.1722
-0.0958675,0.0848227,-0.988273,-0.06412,0.17598,-0.1715
-0.103942,0.113913,-1.01325,-0.06216,0.17346,-0.16786
-0.104431,0.11624,-1.01423,-0.06104,0.1715,-0.16744
-0.0855909,0.109876,-0.996917,-0.0567,0.17052,-0.17178
-0.0511522,0.0864298,-0.980936,-0.05516,0.17402,-0.1722
-0.0296203,0.0493209,-0.951654,-0.05698,0.1708,-0.16772
-0.030599,0.0541592,-0.95911,-0.05264,0.16842,-0.16982
-0.0644873,0.0841592,-0.982428,-0.05292,0.1687,-0.16758
-0.101128,0.11324,-1.00904,-0.05236,0.16828,-0.17556
-0.115809,0.143185,-1.02257,-0.05068,0.16506,-0.1666
-0.105594,0.146802,-1.02724,-0.04466,0.16282,-0.17388
-0.087426,0.1307,-1.00938,-0.04634,0.16002,-0.16926
-0.0441176,0.0904131,-0.991837,-0.04606,0.16506,-0.1645
-0.0116975,0.0734583,-0.971692,-0.04494,0.16464,-0.168
-0.0104129,0.078236,-0.961239,-0.04438,0.16478,-0.16604
-0.015857,0.0927498,-0.974306,-0.04718,0.1624,-0.16646
-0.0317001,0.112038,-0.988321,-0.0448,0.1589,-0.16772
-0.0672399,0.122009,-1.00345,-0.04256,0.1617,-0.17458
-0.0998436,0.136392,-1.01363,-0.04018,0.16016,-0.16044
-0.117032,0.126831,-0.999763,-0.04242,0.15568,-0.16758
-0.111221,0.120402,-1.01629,-0.03948,0.16086,-0.1652
-0.0959898,0.116426,-1.00979,-0.04032,0.15736,-0.16352
-0.0707878,0.0904656,-1.0002,-0.03962,0.15932,-0.1701
-0.0502346,0.0842864,-0.986991,-0.03808,0.15652,-0.16604
-0.0512134,0.0873484,-0.976717,-0.03906,0.15456,-0.1631
-0.0581256,0.114785,-0.976082,-0.03416,0.1505,-0.16506
-0.0734181,0.109268,-0.996522,-0.03388,0.15344,-0.17192
-0.0796574,0.111287,-1.00195,-0.03108,0.15008,-0.17136
-0.0619181,0.112701,-0.996492,-0.02954,0.1505,-0.1659
-0.0639367,0.0733186,-0.995271,-0.0336,0.15022,-0.17038
-0.0581256,0.0904085,-0.99993,-0.03248,0.14476,-0.1708
-0.0548224,0.0910221,-1.01315,-0.0238,0.14364,-0.16744
-0.0685245,0.101491,-1.0161,-0.02506,0.15022,-0.168
-0.0990484,0.0880677,-1.00471,-0.0245,0.1463,-0.17262
-0.0888329,0.100811,-0.996482,-0.02226,0.14252,-0.16786
-0.0775777,0.0704356,-0.96821,-0.02086,0.14602,-0.16352
-0.0587373,0.0758927,-0.984279,-0.02044,0.14252,-0.16422
-0.0460139,0.0680572,-0.981075,-0.02198,0.14252,-0.16394
-0.029131,0.0587532,-0.980573,-0.02254,0.13944,-0.16268
-0.0116975,0.0590651,-0.985267,-0.02002,0.14126,-0.16408
-0.0324953,0.0459514,-0.986313,-0.02044,0.14462,-0.16352
-0.0457692,0.0536642,-0.977716,-0.01778,0.14238,-0.16478
-0.0696867,0.0771753,-0.991036,-0.0133,0.14028,-0.16646
-0.0671176,0.0720927,-0.98548,-0.01316,0.13986,-0.16786
-0.0722559,0.0712948,-0.991519,-0.01134,0.14084,-0.17038
-0.0517027,0.0770587,-0.990657,-0.01078,0.13874,-0.1652
-0.047849,0.0596045,-0.980093,-0.0105,0.1414,-0.1666
-0.0558011,0.0600306,-0.9805,-0.0077,0.13692,-0.17052
-0.069442,0.0708057,-0.980766,-0.00854,0.13468,-0.1673
-0.0888329,0.0864174,-0.998869,-0.00714,0.13846,-0.16688
-0.106817,0.0898414,-1.00689,-0.01134,0.13902,-0.1673
-0.105594,0.0941291,-1.002,-0.00756,0.1365,-0.1673
-0.0948276,0.0881304,-0.987847,-0.00686,0.13636,-0.16828
-0.0607559,0.076872,-0.964954,-0.00448,0.13552,-0.15974
-0.042466,0.0816553,-0.968732,-0.00252,0.13454,-0.16856
-0.0580032,0.0832427,-0.980123,-0.00322,0.13888,-0.16856
-0.0815537,0.0878897,-0.991735,-0.00616,0.1365,-0.16968
-0.0837558,0.0790694,-0.989591,-0.0028,0.13566,-0.16436
-0.0858968,0.0871533,-0.986282,0.00406,0.13818,-0.16212
-0.0851016,0.0844587,-0.988608,0.0035,0.13552,-0.1638
-0.102841,0.0835342,-0.987703,0.00266,0.13174,-0.1673
-0.124067,0.0929593,-0.996387,0.0028,0.12754,-0.16856
-0.129817,0.104411,-1.0097,0.0077,0.13286,-0.16408
-0.12003,0.0962068,-1.00661,0.00392,0.13342,-0.1631
-0.111833,0.0847562,-0.996116,0.00574,0.12726,-0.16632
-0.0973356,0.0705516,-0.986498,0.00322,0.12894,-0.16338
-0.0756202,0.0742948,-0.984784,0.0049,0.13048,-0.16422
-0.0602054,0.0697063,-0.984643,0.00798,0.12572,-0.16632
-0.0608782,0.0738709,-0.987086,0.00826,0.12936,-0.16856
-0.0758037,0.0946288,-0.991627,0.0098,0.1302,-0.16968
-0.0931149,0.105586,-0.993962,0.01008,0.13034,-0.1708
-0.0998436,0.108279,-0.995472,0.0126,0.12768,-0.17304
-0.0937266,0.102034,-0.997813,0.01232,0.1295,-0.17066
-0.0840005,0.0866027,-0.998148,0.00714,0.12642,-0.1638
-0.0833276,0.079192,-0.991609,0.01344,0.13314,-0.17402
-0.0792904,0.0787646,-0.992171,0.01162,0.12978,-0.16576
-0.0853463,0.0809063,-0.993988,0.01358,0.13482,-0.16758
-0.0958063,0.102033,-0.996157,0.01456,0.1323,-0.1708
-0.0989872,0.102645,-0.996087,0.01274,0.12768,-0.16562
-0.0864473,0.102771,-0.98854,0.01694,0.13216,-0.168
-0.0655883,0.0923048,-0.979856,0.01932,0.13076,-0.16786
-0.0544554,0.0832438,-0.975058,0.02142,0.13286,-0.17206
-0.0573304,0.0954923,-0.986787,0.02394,0.13342,-0.17066
-0.0833276,0.108897,-0.998391,0.02268,0.1302,-0.17276
-0.106022,0.105092,-0.994967,0.01848,0.12852,-0.16982
-0.12107,0.0944302,-0.997067,0.02464,0.12726,-0.168
-0.133304,0.099816,-0.989574,0.02534,0.12782,-0.16618
-0.124128,0.0880595,-0.994798,0.02856,0.12586,-0.16268
-0.133976,0.0957122,-0.999477,0.0252,0.12684,-0.16282
-0.123027,0.0880599,-1.00036,0.02632,0.12558,-0.17108
-0.118745,0.0728107,-0.994937,0.03206,0.12348,-0.17318
-0.119785,0.0877547,-1.00771,0.02898,0.12404,-0.16898
-0.118378,0.0878164,-1.00343,0.035,0.12138,-0.16758
-0.119296,0.0773428,-0.990655,0.03556,0.12124,-0.16954
-0.107551,0.0785104,-0.993377,0.0322,0.12138,-0.16912
-0.0933595,0.0922344,-1.00644,0.03836,0.12264,-0.16814
-0.0791069,0.0505909,-1.00746,0.04046,0.12138,-0.16856
-0.12058,0.0444526,-1.03223,0.03864,0.11998,-0.16632
-0.126086,0.0623963,-1.0209,0.03598,0.12096,-0.1694
-0.134955,0.0945482,-1.03469,0.04046,0.11774,-0.17136
-0.122844,0.0903873,-1.02928,0.04522,0.11816,-0.16828
-0.0969074,0.0559749,-1.02441,0.03962,0.11424,-0.16954
-0.0552506,0.0622357,-1.01596,0.04844,0.11746,-0.16996
-0.0402639,0.0770012,-1.01942,0.04424,0.12054,-0.1666
-0.0339022,0.0537293,-1.02085,0.04578,0.11242,-0.16702
-0.0743968,0.0867284,-1.04599,0.04452,0.1183,-0.16618
-0.104982,0.132715,-1.04033,0.04284,0.1141,-0.17318
-0.0991095,0.157828,-1.0165,0.05166,0.11732,-0.17374
-0.11899,0.0938797,-1.0222,0.04998,0.11788,-0.17444
-0.0948276,0.123715,-1.00765,0.0483,0.1155,-0.17458
-0.0702372,0.156307,-0.991204,0.04956,0.11466,-0.17528
-0.050724,0.134203,-0.973959,0.05236,0.1155,-0.1813
-0.0709101,0.116496,-0.959355,0.0532,0.1162,-0.1778
-0.0652825,0.101553,-0.935406,0.05642,0.1127,-0.1799
-0.0728064,0.0883213,-0.920409,0.05516,0.11116,-0.17654
-0.0467479,0.0942709,-0.937598,0.05768,0.11508,-0.17836
-0.0529873,0.0787732,-0.950423,0.06034,0.11312,-0.17696
-0.0489501,0.0752222,-0.951291,0.06188,0.1106,-0.182
-0.0497453,0.0717309,-0.951289,0.06776,0.10752,-0.1855
-0.0364714,0.070449,-0.944723,0.07098,0.10542,-0.18424
-0.0213624,0.0725364,-0.942685,0.07252,0.10738,-0.17934
-0.029131,0.080006,-0.951344,0.07546,0.10738,-0.17906
-0.0602054,0.102596,-0.956024,0.0749,0.10696,-0.17822
-0.0827159,0.0978114,-0.957308,0.07406,0.11102,-0.18298
-0.102657,0.106686,-0.958475,0.08162,0.10934,-0.17654
-0.0788622,0.100385,-0.950043,0.08106,0.11046,-0.18102
-0.0734181,0.0965283,-0.948408,0.0861,0.11116,-0.18074
-0.0757426,0.113799,-0.953045,0.09128,0.1106,-0.1792
-0.0740298,0.122987,-0.949624,0.08974,0.10808,-0.18354
-0.0811867,0.133887,-0.944039,0.09352,0.10948,-0.1771
-0.0706043,0.154592,-0.935321,0.09646,0.10906,-0.1792
-0.0562293,0.151105,-0.933649,0.09758,0.1092,-0.18088
-0.058982,0.152146,-0.942262,0.0945,0.10738,-0.17934
-0.0785564,0.12715,-0.956948,0.10388,0.10556,-0.17878
-0.0854074,0.119186,-0.967141,0.10472,0.1092,-0.17752
-0.0919526,0.123165,-0.976415,0.1015,0.10584,-0.17234
-0.0873037,0.114469,-0.971722,0.10682,0.10598,-0.1764
-0.0772718,0.131683,-0.97945,0.1106,0.10374,-0.17738
-0.0869978,0.123166,-0.992937,0.11018,0.10402,-0.17528
-0.119601,0.10423,-1.00979,0.10948,0.10346,-0.17332
-0.131591,0.103185,-1.02669,0.10766,0.10556,-0.16716
-0.118195,0.0927775,-1.02703,0.11284,0.10514,-0.1715
-0.080942,0.0805403,-1.01589,0.11088,0.10738,-0.16954
-0.045341,0.0671388,-1.00865,0.11368,0.10444,-0.16548
0.0762651,-0.0707503,-1.04202,0.1134,0.10304,-0.16674
0.0130764,-0.0313278,-1.05077,0.11214,0.1043,-0.16996
-0.0725617,-0.0213113,-1.06276,0.1134,0.10262,-0.17024
-0.0998436,0.00299497,-1.05853,0.11368,0.10206,-0.16786
-0.109753,0.0439662,-1.0388,0.11382,0.1036,-0.16912
-0.108285,0.0851248,-1.01765,0.11172,0.10318,-0.16632
-0.104615,0.087086,-1.00525,0.112,0.10696,-0.16898
-0.0896282,0.0794962,-0.999112,0.11452,0.10752,-0.1666
-0.0549447,0.0385331,-0.990899,0.11004,0.10822,-0.16688
-0.0042959,0.0295464,-0.98303,0.11032,0.1071,-0.16758
0.0286748,0.0351307,-0.972971,0.11438,0.10486,-0.1666
0.0309381,0.0462784,-0.954694,0.1155,0.10332,-0.16114
0.0349753,0.0317641,-0.954035,0.11872,0.1057,-0.16226
0.0272679,0.0205533,-0.973336,0.12054,0.10934,-0.16772
-0.00233846,0.00180197,-0.996308,0.12054,0.10416,-0.16464
-0.0636309,0.0243821,-1.01087,0.12152,0.105,-0.16086
-0.112628,0.0309808,-1.03244,0.12166,0.1022,-0.1659
-0.144987,0.0446896,-1.02666,0.12124,0.10136,-0.15988
-0.101801,0.0399265,-1.01755,0.12264,0.10458,-0.1631
-0.0884659,0.0383384,-1.00774,0.12236,0.1064,-0.15932
-0.0703596,0.0605771,-1.00284,0.12432,0.10472,-0.16184
-0.0818596,0.0564698,-1.00091,0.12376,0.10304,-0.1561
-0.056474,0.0289168,-1.0074,0.12516,0.10542,-0.16002
-0.0447293,0.0246333,-1.02517,0.12418,0.1057,-0.16604
-0.0468703,0.0521939,-1.03763,0.126,0.10626,-0.15778
-0.0598383,0.0357754,-1.02268,0.12334,0.1057,-0.16128
-0.0664447,0.0417142,-1.01569,0.12264,0.10822,-0.15974
-0.0463809,0.036331,-1.00853,0.12586,0.10528,-0.16282
-0.0148172,0.0480396,-1.00556,0.1246,0.1022,-0.16142
0.0251269,0.0170003,-1.00555,0.12824,0.10598,-0.1582
-0.000625697,0.0436344,-1.00853,0.13034,0.10486,-0.15792
-0.0170804,0.0808062,-1.00714,0.13328,0.10444,-0.1603
-0.0227081,0.0759045,-0.995567,0.13454,0.10682,-0.16072
-0.0283357,0.0570998,-0.984977,0.13972,0.10234,-0.15848
-0.01549,0.0253779,-0.989909,0.14168,0.10626,-0.16142
-0.00484643,-0.0124082,-0.993002,0.14084,0.1064,-0.15806
-0.0247267,-0.0535117,-0.998274,0.14406,0.11116,-0.15722
-0.0543942,-0.0469067,-1.01146,0.14154,0.10878,-0.15974
-0.0647319,-0.0182463,-1.01228,0.14378,0.1057,-0.16268
-0.0709713,-0.00802009,-0.997711,0.1491,0.10332,-0.16058
-0.0660777,-0.00728352,-0.988737,0.14756,0.10724,-0.15876
-0.0403862,0.0114053,-0.999748,0.14826,0.1071,-0.16226
-0.00894483,0.036772,-1.00833,0.14812,0.10458,-0.16226
-0.00753792,0.0316277,-1.00497,0.14882,0.10542,-0.16492
-0.0133491,0.0109855,-0.996215,0.15092,0.105,-0.16464
-0.0175698,0.0228048,-1.00317,0.14994,0.10752,-0.16338
-0.0240538,0.016188,-1.00664,0.15456,0.1078,-0.16926
-0.0274182,0.00626481,-1.00449,0.15778,0.1099,-0.16394
-0.0133491,0.0188251,-1.0063,0.15862,0.1141,-0.1694
-0.0231975,0.0320513,-0.996368,0.15792,0.10738,-0.16996
-0.0203836,0.0712505,-1.0108,0.15582,0.112,-0.16716
-0.0257666,0.0801908,-1.0161,0.1561,0.11116,-0.16968
-0.0247267,0.144685,-1.03174,0.1631,0.10878,-0.17122
-0.00747675,0.193076,-1.05012,0.16548,0.10976,-0.16828
-0.00747675,0.129685,-1.00734,0.16464,0.11102,-0.16366
-0.0391628,0.0539726,-0.959086,0.16968,0.1134,-0.1666
-0.0594713,0.023526,-0.951271,0.16996,0.11116,-0.16898
-0.0587984,-0.0499093,-0.945172,0.1687,0.11074,-0.16352
-0.0216682,-0.0733548,-0.937696,0.17346,0.11522,-0.16212
-0.0083943,-0.0644084,-0.939626,0.1701,0.10948,-0.16352
0.00396206,0.0234243,-0.962328,0.17248,0.11256,-0.16492
0.0215179,0.088536,-0.975937,0.17024,0.11452,-0.16464
0.0284301,0.162464,-0.997831,0.17136,0.1169,-0.16408
0.0144221,0.169135,-1.00281,0.17696,0.11466,-0.16898
-0.02124,0.119636,-0.996908,0.17514,0.11984,-0.1645
-0.0268677,0.0890101,-0.997815,0.1743,0.11774,-0.17108
-0.0282134,0.0860698,-1.00087,0.17836,0.12012,-0.16926
-0.0349421,0.0993582,-1.00708,0.1771,0.11886,-0.1673
-0.023381,0.0523854,-1.00902,0.17836,0.11606,-0.16604
-0.0244209,0.00424463,-1.00468,0.17584,0.11928,-0.16954
-0.0468091,-0.0179342,-1.00854,0.1736,0.11606,-0.16366
-0.0542719,0.0204041,-1.01976,0.17444,0.11774,-0.16744
-0.0548836,0.0646245,-1.01853,0.17962,0.12096,-0.175
-0.0347586,0.0845365,-1.01363,0.17682,0.1169,-0.16758
-0.0309661,0.0989308,-1.00899,0.17416,0.1169,-0.1666
-0.0167746,0.0834399,-0.998577,0.18032,0.11788,-0.17122
-0.00931185,0.0740715,-0.990284,0.1792,0.11452,-0.16548
-0.00704855,0.0763996,-0.984115,0.18116,0.11774,-0.16828
-0.0154289,0.0713746,-0.98073,0.17892,0.1169,-0.16282
-0.0189767,0.0578378,-0.980234,0.18144,0.11578,-0.16114
-0.0247267,0.0519562,-0.981075,0.18004,0.11606,-0.16366
-0.0271123,0.0682472,-0.987302,0.1792,0.11746,-0.1666
-0.0285804,0.0597333,-0.985832,0.18018,0.11522,-0.16828
-0.0214847,0.0566733,-0.973196,0.18508,0.1169,-0.17052
-0.0116975,0.046142,-0.963443,0.18606,0.11284,-0.1694
-0.0136549,0.00161452,-0.953173,0.1855,0.11228,-0.16408
-0.0165299,-0.0494667,-0.946449,0.17948,0.11634,-0.1659
-0.0283357,-0.0506955,-0.942565,0.18522,0.11228,-0.16674
-0.0290698,0.0088979,-0.957165,0.19278,0.11382,-0.1624
-0.0918303,0.178104,-1.13788,0.18886,0.11634,-0.16464
-0.0232586,0.150749,-1.07063,0.18592,0.11718,-0.17066
-0.0525591,0.0820195,-1.04433,0.18802,0.11536,-0.16408
-0.0556176,0.0267734,-1.02049,0.19208,0.11942,-0.16282
-0.059349,-0.00666884,-1.02134,0.19026,0.11746,-0.16198
-0.0658942,-0.0363147,-1.02176,0.19152,0.112,-0.16296
-0.0240538,-0.098222,-0.970221,0.1897,0.11536,-0.16016
-0.0159794,-0.0282749,-0.913982,0.196,0.10906,-0.15918
0.00383972,-0.00658689,-0.933719,0.1974,0.10962,-0.16142
-0.00356186,0.0288729,-0.981015,0.19124,0.11298,-0.1568
-0.0135326,0.00571813,-0.990713,0.19866,0.11354,-0.16142
-0.0329847,-0.0361202,-0.992746,0.1974,0.11466,-0.15708
-0.0783117,-0.0305003,-1.00338,0.20356,0.11438,-0.15582
-0.0774553,-0.00551107,-1.00289,0.20188,0.11284,-0.1624
-0.0438729,0.0295946,-1.01117,0.20468,0.1148,-0.16394
-0.0194049,0.0661673,-1.00585,0.20748,0.1127,-0.16072
-0.0128597,0.0891372,-1.00311,0.20692,0.11578,-0.16184
-0.0124927,0.0795215,-1.00018,0.21056,0.11662,-0.16604
-0.0192214,0.0371361,-1.00537,0.21,0.11788,-0.16716
-0.0528649,0.016301,-1.01549,0.21336,0.11704,-0.16408
-0.0623463,0.00410971,-1.01345,0.21056,0.11886,-0.15862
-0.0655271,-0.00807955,-1.0058,0.21378,0.11592,-0.16366
-0.0580644,-0.00636218,-0.998052,0.2149,0.1162,-0.16114
-0.0534766,0.0021527,-0.998369,0.21896,0.12012,-0.16212
-0.0405086,0.0076692,-1.00709,0.22022,0.11788,-0.15834
-0.0259501,0.0275181,-1.01531,0.22344,0.12012,-0.15862
-0.0202001,0.0338285,-1.0267,0.2233,0.1169,-0.16744
-0.0205671,0.0440566,-1.04535,0.22442,0.11438,-0.16268
-0.041732,0.0362713,-1.02151,0.2233,0.11606,-0.16184
-0.056107,0.0129926,-1.00649,0.22358,0.11718,-0.16058
-0.0707266,0.00269827,-1.00755,0.22596,0.11746,-0.16212
-0.0667506,-0.00661002,-0.999312,0.22792,0.11718,-0.1582
-0.0567187,-0.0158551,-0.988336,0.2303,0.12124,-0.15988
-0.0550059,-0.0159158,-0.984122,0.23114,0.1183,-0.15736
-0.0471761,-0.000111388,-0.990744,0.2282,0.11606,-0.15736
-0.0342081,0.0190633,-1.00692,0.23352,0.11746,-0.15708
-0.0392852,0.0231039,-1.00941,0.23506,0.1197,-0.15498
-0.051091,0.0132392,-0.99874,0.23478,0.12278,-0.15974
-0.0463809,-0.00317349,-0.985794,0.23842,0.11942,-0.15806
-0.0500511,-0.0147504,-0.982301,0.24542,0.11844,-0.15316
-0.0429554,-0.0277938,-0.982262,0.24248,0.1197,-0.1484
-0.0420378,-0.0233224,-0.989539,0.2422,0.12404,-0.15372
-0.0490112,-0.0331243,-0.98781,0.24122,0.12138,-0.14672
-0.0556788,-0.0328815,-0.995985,0.24304,0.12166,-0.1533
-0.0624075,-0.0126108,-1.01002,0.24808,0.12096,-0.14826
-0.0619181,0.00815217,-1.01094,0.2499,0.12404,-0.14896
-0.0466868,0.0364534,-1.00664,0.25144,0.12558,-0.15008
-0.026623,0.0488319,-0.989263,0.2506,0.12754,-0.15638
-0.0200778,0.0136781,-0.973941,0.25186,0.12656,-0.15036
-0.0396522,-0.0263228,-0.95861,0.25662,0.13062,-0.1505
-0.0518862,-0.0167722,-0.978139,0.25942,0.1288,-0.15316
-0.0466868,-0.00452103,-0.993864,0.25578,0.12698,-0.15106
-0.0486442,0.0104227,-0.999787,0.26166,0.1295,-0.15218
-0.0645484,0.00147535,-0.996566,0.26558,0.12908,-0.15204
-0.0572692,-0.0358219,-0.996653,0.26236,0.13314,-0.1505
-0.0627745,-0.00954858,-1.0151,0.26516,0.13048,-0.1498
-0.0648543,-0.00562944,-1.02402,0.26362,0.13118,-0.1547
-0.0647931,-0.000974622,-1.02658,0.26446,0.1281,-0.1477
-0.0611229,-0.0071594,-1.02073,0.26824,0.12964,-0.15022
-0.0576974,-0.0265124,-1.00839,0.26824,0.13244,-0.1456
-0.0558623,-0.0274305,-0.997634,0.27118,0.1372,-0.14574
-0.0582479,-0.0270026,-0.99188,0.27286,0.13342,-0.15134
-0.0496229,-0.0212425,-0.99123,0.2765,0.13678,-0.1449
-0.0405086,-0.0127874,-0.990337,0.27972,0.13888,-0.14756
-0.0480325,-0.00758384,-0.989826,0.27888,0.13608,-0.14672
-0.0582479,-0.0194692,-0.989311,0.27986,0.13776,-0.1428
-0.0527426,-0.0164662,-0.984434,0.27986,0.13692,-0.14644
-0.0586761,-0.0333724,-0.989251,0.28644,0.13902,-0.1477
-0.0328012,-0.0260143,-0.95337,0.2863,0.14126,-0.14196
-0.00588632,0.00970171,-0.973064,0.28364,0.14238,-0.1449
-0.00594749,0.0334044,-0.984248,0.287,0.13944,-0.14504
-0.0295591,0.0323555,-0.99311,0.28854,0.14462,-0.14434
-0.0447293,-0.00403041,-0.993258,0.29176,0.1463,-0.14784
-0.0608782,-0.0394979,-0.995666,0.29358,0.15036,-0.14406
-0.0712771,-0.0448298,-1.01019,0.29176,0.14574,-0.14518
-0.0689527,-0.0335596,-1.0171,0.28896,0.14378,-0.14798
-0.0501123,-0.0304298,-1.00389,0.28966,0.14686,-0.14952
-0.0361655,-0.0162158,-0.986375,0.28924,0.15148,-0.1477
-0.0283357,-0.00427003,-0.98511,0.29344,0.15428,-0.14952
-0.0222187,0.0109826,-0.995213,0.2975,0.15232,-0.15246
-0.0222799,0.0152698,-1.00622,0.3003,0.15148,-0.15148
-0.0318836,-0.00120883,-1.00063,0.29456,0.15386,-0.1505
-0.0476655,-0.0241205,-0.986895,0.29596,0.15358,-0.15302
-0.0516415,-0.0356975,-0.985908,0.29414,0.15092,-0.14854
-0.0589208,-0.0416409,-0.98699,0.29722,0.15148,-0.14966
-0.0567798,-0.0364342,-1.00723,0.29918,0.15344,-0.14868
-0.0584926,-0.0263902,-1.01731,0.30044,0.15316,-0.14742
-0.0481548,-0.0231407,-1.01679,0.30072,0.15736,-0.14826
-0.0393464,-0.0111333,-1.01223,0.301,0.15414,-0.147
-0.0317613,0.003691,-0.996838,0.3031,0.154,-0.14266
-0.0342081,0.00552761,-0.988516,0.3031,0.15484,-0.14518
-0.0455857,-0.0123603,-0.98213,0.30758,0.15078,-0.14798
-0.0592878,-0.0349651,-0.975126,0.30492,0.15554,-0.14602
-0.0841229,-0.0570835,-0.985701,0.3052,0.15778,-0.13776
-0.101617,-0.0733198,-1.00498,0.30086,0.15554,-0.13846
-0.0928702,-0.0885675,-1.00995,0.30674,0.15582,-0.13972
-0.078067,-0.0641862,-1.01274,0.30842,0.15708,-0.13692
-0.058982,-0.0403547,-1.00411,0.3066,0.15862,-0.13874
-0.0507852,0.00895203,-0.993423,0.30576,0.15484,-0.13986
-0.0597772,0.0322843,-0.994739,0.30828,0.1582,-0.14504
-0.0254607,0.0320506,-0.988047,0.31038,0.1533,-0.14574
-0.0465644,-0.0110745,-0.99729,0.31262,0.15736,-0.14238
-0.0666894,-0.0517493,-0.991617,0.30786,0.15666,-0.1435
-0.085958,-0.0743558,-0.987655,0.31542,0.15918,-0.13902
-0.0958063,-0.0865473,-0.993011,0.3129,0.15946,-0.14056
-0.0906681,-0.0747861,-1.01118,0.3143,0.1589,-0.14098
-0.106511,-0.0572746,-1.0277,0.31444,0.15932,-0.14224
-0.0770883,-0.0685344,-1.02216,0.31794,0.1561,-0.13174
-0.0703596,-0.0511992,-1.01845,0.31892,0.1652,-0.13776
-0.0380618,-0.049045,-0.994201,0.31444,0.16422,-0.1323
-0.0349421,-0.0458591,-0.97813,0.3171,0.16422,-0.14112
-0.0499899,-0.0481302,-0.978333,0.31976,0.1645,-0.13888
-0.053599,-0.0614833,-0.980955,0.32284,0.16072,-0.13986
-0.0646708,-0.0578733,-0.989361,0.3227,0.16464,-0.14042
-0.0712771,-0.0557931,-1.0034,0.3234,0.1638,-0.14168
-0.0635697,-0.0564643,-1.0085,0.32158,0.16366,-0.14294
-0.0735404,-0.0842126,-1.01704,0.32354,0.16534,-0.13916
-0.080575,-0.105651,-1.01641,0.32284,0.1652,-0.14042
-0.0803303,-0.0861747,-1.01751,0.32228,0.17262,-0.14644
-0.0725617,-0.0656543,-1.01355,0.32284,0.16786,-0.13776
-0.0438118,-0.0420034,-0.989844,0.32312,0.17094,-0.14056
-0.0386123,-0.0116231,-0.977441,0.32704,0.17164,-0.1351
-0.0346974,0.00411876,-0.978427,0.32718,0.168,-0.14168
-0.039591,-0.0138283,-0.980618,0.32956,0.16884,-0.13944
-0.0425884,-0.0455554,-0.983672,0.33138,0.1736,-0.13678
-0.0574527,-0.0710391,-1.00173,0.32928,0.17668,-0.14266
-0.0791681,-0.0768647,-1.02228,0.32872,0.17654,-0.13762
-0.0898728,-0.0861166,-1.02763,0.33348,0.17248,-0.14112
-0.0817372,-0.085134,-1.02197,0.33264,0.17612,-0.14056
-0.069075,-0.0627746,-1.00849,0.33446,0.17346,-0.1386
-0.0523144,-0.0146899,-0.9815,0.33754,0.1799,-0.13496
-0.0315166,0.0216978,-0.96431,0.33698,0.18158,-0.13944
-0.0258278,0.00161053,-0.969342,0.34006,0.17934,-0.1407
-0.009006,-0.0306613,-0.977831,0.34482,0.18242,-0.13888
-0.0235033,-0.0198253,-1.00952,0.3388,0.17962,-0.13734
-0.0347586,-0.0628858,-0.999654,0.34356,0.18326,-0.14196
-0.042099,-0.0612345,-0.99835,0.3444,0.17934,-0.14014
-0.0559846,-0.0510108,-0.99721,0.33838,0.18494,-0.1421
-0.045341,-0.0403503,-0.98935,0.3423,0.18032,-0.14574
-0.0306602,-0.00665944,-0.987061,0.34496,0.18284,-0.14462
-0.0189155,0.0366463,-0.98305,0.34636,0.18214,-0.14252
0.00604184,0.0273448,-0.986299,0.34272,0.18788,-0.14056
0.00420674,0.00296781,-0.991924,0.34804,0.18648,-0.14322
-0.0217905,-0.0114951,-0.996807,0.3444,0.18886,-0.14588
-0.0497453,-0.033737,-0.996857,0.34482,0.18718,-0.14588
-0.0711548,-0.0434823,-1.00689,0.3437,0.18732,-0.14602
-0.0710936,-0.0680425,-0.999189,0.3444,0.1911,-0.14126
-0.0747638,-0.0570192,-1.00089,0.34986,0.19054,-0.1442
-0.0711548,-0.0489946,-1.0075,0.34762,0.19236,-0.14168
-0.0695032,-0.0429918,-1.02591,0.34818,0.1925,-0.14518
-0.0559234,-0.0157936,-1.01744,0.3451,0.19376,-0.14588
-0.0324953,0.00516069,-1.00491,0.35182,0.19278,-0.14602
-0.0279687,0.00944949,-0.991712,0.34986,0.18998,-0.14532
-0.0496229,-0.0232024,-0.997345,0.35126,0.1967,-0.14826
-0.0887718,-0.0561051,-1.0209,0.3528,0.19264,-0.15106
-0.109998,-0.0695864,-1.04261,0.35266,0.1918,-0.14448
-0.109386,-0.091329,-1.0318,0.35742,0.18928,-0.1442
-0.0861415,-0.0854417,-1.00881,0.3542,0.19586,-0.1435
-0.0581867,-0.0747755,-0.999531,0.35644,0.19446,-0.14266
-0.0452187,-0.0660741,-0.996019,0.35812,0.19628,-0.15078
-0.0512745,-0.074222,-0.98506,0.35826,0.1967,-0.14714
-0.0532931,-0.0519899,-1.00828,0.35546,0.19516,-0.1505
-0.0409979,-0.0285281,-1.01363,0.3577,0.1974,-0.14644
-0.0255831,-0.0206834,-1.00358,0.35784,0.19572,-0.1449
-0.0183038,-0.0255196,-0.991989,0.35686,0.19698,-0.14294
-0.0337799,-0.0363654,-0.991399,0.35994,0.19992,-0.14364
-0.0395299,-0.0495967,-1.00245,0.36218,0.2009,-0.14504
-0.0405086,-0.0644189,-1.00416,0.35966,0.19936,-0.14252
-0.038123,-0.0709716,-1.00906,0.36512,0.2009,-0.13762
-0.0519474,-0.0794895,-1.03085,0.3619,0.20566,-0.14
-0.0660165,-0.0900286,-1.01461,0.36344,0.20622,-0.13944
-0.056107,-0.0685888,-1.01366,0.3696,0.20132,-0.14378
-0.0304767,-0.0327507,-1.00345,0.36736,0.2044,-0.13888
-0.0173251,-0.00261275,-1.00422,0.36372,0.20538,-0.14364
-0.00906717,-0.00953099,-1.00241,0.36316,0.20762,-0.14308
-1.39958e-05,-0.038498,-0.999623,0.36512,0.20958,-0.14238
-0.00264431,-0.0620178,-0.997541,0.3682,0.21056,-0.1407
-0.0280911,-0.0626386,-1.01569,0.36484,0.20594,-0.14546
-0.0668117,-0.0891102,-1.02293,0.36792,0.20902,-0.1379
-0.0761707,-0.109815,-1.0218,0.36834,0.21182,-0.14504
-0.0747027,-0.10516,-1.02003,0.36876,0.20944,-0.1421
-0.0501735,-0.0887985,-1.00487,0.36932,0.21042,-0.1407
-0.0379394,-0.0548022,-1.00405,0.3703,0.21196,-0.14728
-0.0365325,-0.032079,-0.997749,0.37212,0.21322,-0.1505
-0.0339022,-0.0115603,-1.00277,0.37072,0.21504,-0.14224
-0.0340246,-0.0165214,-0.997997,0.37156,0.21448,-0.147
-0.0167134,-0.0284589,-1.00324,0.37212,0.21378,-0.14532
-0.0136549,-0.0334802,-0.970238,0.37492,0.21308,-0.14994
-0.0223411,0.00896135,-0.951253,0.37506,0.21686,-0.14266
-0.00454058,2.50755e-05,-0.964632,0.37184,0.2212,-0.14476
-0.039591,-0.0290176,-0.992054,0.37422,0.217,-0.14616
-0.0239315,-0.0562063,-0.99149,0.37884,0.22008,-0.14952
-0.0318224,-0.0334861,-0.995867,0.37772,0.21966,-0.14182
-0.00870015,-0.0307837,-0.995563,0.38178,0.2205,-0.14252
-0.0134102,-0.0173721,-0.981057,0.3808,0.21952,-0.1456
-0.0531096,-0.0326357,-0.984742,0.37828,0.2261,-0.1477
-0.0479713,-0.0166484,-0.974971,0.38248,0.22386,-0.14616
-0.0199554,-0.0190279,-0.957929,0.38206,0.22428,-0.14392
-0.000809207,0.00229245,-0.944038,0.3843,0.22862,-0.14336
0.0321003,0.00211949,-0.941743,0.38864,0.2324,-0.14084
0.0343024,-0.00014594,-0.966878,0.39102,0.23072,-0.1407
0.0232918,-0.0191975,-0.986661,0.39214,0.23618,-0.14182
0.042438,-0.0530609,-0.976509,0.38794,0.2352,-0.13552
0.0374221,-0.0858911,-0.981881,0.39396,0.23884,-0.1372
0.0206003,-0.0865704,-0.9896,0.38878,0.2352,-0.13202
0.00732641,-0.0664856,-0.997997,0.38752,0.238,-0.13202
0.00316685,-0.044193,-1.00948,0.39298,0.23772,-0.13818
0.000475365,-0.0438264,-1.00678,0.39326,0.24066,-0.13272
0.00830513,-0.049336,-1.00203,0.39592,0.24094,-0.1379
0.000230685,-0.0435814,-0.996201,0.38836,0.24346,-0.13552
-0.00570281,-0.0450533,-0.993678,0.39298,0.24374,-0.1393
-0.0137773,-0.0440148,-0.996774,0.39844,0.24542,-0.13538
-0.0224634,-0.0445076,-0.998462,0.40138,0.2443,-0.13762
-0.0217294,-0.0668014,-1.01112,0.39732,0.24836,-0.13818
-0.0198331,-0.107898,-1.00637,0.39858,0.2457,-0.13636
-0.0282134,-0.120089,-1.01484,0.40194,0.24332,-0.1358
-0.0428942,-0.101903,-1.00942,0.4004,0.24864,-0.13426
-0.0542107,-0.062096,-0.995566,0.40236,0.2492,-0.13594
-0.0407533,-0.0334278,-0.981352,0.40418,0.25424,-0.13762
-0.0397134,0.00717949,-0.97988,0.40376,0.2541,-0.1414
-0.0323118,0.00883559,-0.978922,0.40432,0.25536,-0.14
-0.0480937,-0.0197108,-0.994108,0.4081,0.2555,-0.13888
-0.0515804,-0.058604,-1.00823,0.4109,0.25578,-0.1316
-0.0443623,-0.0778333,-1.00678,0.40544,0.2583,-0.13748
-0.0511522,-0.0627074,-1.00695,0.40614,0.25956,-0.13412
-0.033474,-0.0348954,-1.00167,0.41048,0.25816,-0.13286
-0.0195884,-0.0345233,-0.995411,0.40572,0.2569,-0.13468
-0.0200166,-0.022519,-1.00757,0.40656,0.25844,-0.13174
0.0071429,-0.047744,-1.00502,0.40866,0.26026,-0.13412
0.0316109,-0.0442449,-1.00118,0.41202,0.26124,-0.13104
0.0386455,-0.0332793,-1.00327,0.4081,0.26432,-0.13286
0.05143,-0.0267217,-0.999701,0.41188,0.2639,-0.1302
0.163494,0.0432595,-1.00128,0.4109,0.26418,-0.12544
0.133398,0.0238342,-1.01936,0.41104,0.26474,-0.12922
0.140494,0.0043599,-1.02024,0.41174,0.26068,-0.13062
0.0984087,-0.0497353,-1.04061,0.40978,0.26222,-0.12418
0.0577917,-0.0719201,-1.05163,0.41132,0.26838,-0.12852
0.0240258,-0.112354,-1.04984,0.4102,0.27062,-0.13622
-0.0369607,-0.181278,-1.03745,0.4144,0.26698,-0.12544
-0.0950723,-0.181848,-1.02054,0.40922,0.2688,-0.12754
-0.0978861,-0.131013,-0.999677,0.4123,0.27062,-0.13006
-0.0569633,-0.0298808,-0.983814,0.4144,0.27216,-0.1309
-0.0511522,-0.0441495,-0.962739,0.41468,0.27538,-0.13552
-0.0167746,-0.0216605,-0.974323,0.41104,0.27216,-0.13062
-0.00160442,-0.0452357,-0.981767,0.4137,0.27048,-0.12922
0.0212732,-0.0378173,-0.979505,0.41832,0.2716,-0.13244
0.0566295,-0.0115919,-0.972872,0.41356,0.27244,-0.13062
0.0867252,0.0251664,-0.978328,0.41944,0.27272,-0.13384
0.0907624,-0.00367979,-0.976143,0.41762,0.2695,-0.13412
0.0309381,-0.0408153,-0.985524,0.41832,0.26992,-0.1323
0.0152785,-0.0395954,-0.998014,0.41832,0.26978,-0.1323
0.0053078,-0.062444,-1.0156,0.4158,0.27286,-0.13272
0.0306934,-0.0614557,-1.03456,0.42308,0.27678,-0.12726
0.0467199,-0.0500584,-1.03326,0.4193,0.27608,-0.13272
0.0168689,-0.0688099,-1.0223,0.4214,0.27426,-0.1288
-0.00741558,-0.0595695,-1.01098,0.42238,0.27944,-0.1337
-0.0213012,-0.0312778,-1.0132,0.42056,0.2772,-0.13188
-0.0225858,-0.036913,-0.999561,0.42,0.27888,-0.12782
-0.0317001,-0.0291375,-0.987429,0.42322,0.28042,-0.12698
-0.0140219,0.00283935,-0.984476,0.42154,0.28182,-0.13384
0.0554061,0.0280347,-0.983011,0.42336,0.2856,-0.13342
0.0829326,0.0170192,-0.986695,0.42126,0.28168,-0.1358
0.0548556,-0.0322328,-1.00271,0.4207,0.28392,-0.13482
0.0105684,-0.0710781,-1.02197,0.4221,0.2842,-0.12628
-0.0286416,-0.0901389,-1.03208,0.42658,0.28532,-0.13174
-0.0319448,-0.0617212,-1.02522,0.42252,0.28798,-0.13048
-0.0136549,-0.0035915,-1.00789,0.42588,0.29008,-0.13132
0.0121588,0.0496409,-0.985945,0.42336,0.2884,-0.13034
0.0377279,0.066186,-0.964614,0.42658,0.29302,-0.13118
0.0508795,0.0648429,-0.956702,0.42854,0.29666,-0.12936
0.0684965,0.0418197,-0.966964,0.42322,0.2933,-0.12908
0.0645204,0.0131546,-0.992576,0.42854,0.29792,-0.12516
0.0297758,0.00175124,-1.01724,0.42798,0.29582,-0.13132
0.00487961,-0.0432124,-1.01456,0.42462,0.29834,-0.12908
0.0179088,-0.0506803,-0.999491,0.4277,0.29736,-0.1281
0.0596268,-0.0232279,-0.993547,0.43176,0.2975,-0.1281
0.0919246,0.00244533,-0.982687,0.43064,0.29974,-0.13062
0.105933,0.0204566,-0.967376,0.43036,0.29596,-0.12488
0.107645,0.0385864,-0.970802,0.42966,0.30324,-0.1239
0.065071,0.031529,-0.986583,0.4312,0.30436,-0.12278
0.033079,-0.00498488,-1.00808,0.43372,0.3017,-0.1253
0.0327732,-0.0370786,-1.012,0.43246,0.3052,-0.12278
0.0436614,-0.0319915,-1.00824,0.43036,0.30702,-0.12446
0.053938,-0.00718295,-1.00924,0.43204,0.30814,-0.13426
0.0593821,0.0144391,-1.00882,0.4326,0.30576,-0.13006
0.0548556,0.0171325,-1.00349,0.434,0.30408,-0.12684
0.0675789,0.0232002,-1.00567,0.43456,0.30156,-0.1288
0.0487386,0.0302987,-1.0006,0.43288,0.30478,-0.13342
0.0437838,0.043404,-1.00523,0.43274,0.30744,-0.13468
0.0421322,0.0351351,-1.01354,0.42854,0.3108,-0.13412
0.0273902,0.00720147,-1.0195,0.42826,0.30646,-0.13832
0.0236588,-0.00707037,-1.0234,0.42812,0.31248,-0.133
0.0112413,-0.0194464,-1.02013,0.43246,0.31052,-0.13006
0.00854982,-0.0119751,-1.01725,0.43162,0.31206,-0.13244
0.0150338,0.021713,-1.01164,0.43064,0.3157,-0.13566
0.0232306,0.0421111,-1.00041,0.43092,0.315,-0.13566
0.0378503,0.0577952,-0.998181,0.43036,0.32046,-0.13244
0.0538157,0.0491645,-0.995903,0.4319,0.31864,-0.1295
0.0502678,0.0269918,-0.996876,0.43736,0.3185,-0.13202
0.0366269,0.0141254,-1.00277,0.43386,0.31878,-0.1337
0.0306934,-0.00229078,-0.9986,0.4333,0.32144,-0.13566
0.000597705,0.0196259,-1.00328,0.43442,0.32382,-0.13594
0.0136881,0.0364119,-0.988826,0.43008,0.322,-0.13692
0.0142998,0.0519077,-0.982649,0.43694,0.3213,-0.13944
0.0482492,0.0524701,-0.983476,0.4326,0.3227,-0.1386
0.0571189,0.0209919,-0.987602,0.43554,0.32312,-0.13958
0.0356482,-0.00976133,-1.00455,0.4319,0.32354,-0.13608
0.00812162,0.0111762,-1.01841,0.43232,0.32522,-0.13692
-0.0156735,0.0441807,-1.01681,0.4298,0.32536,-0.13538
-0.02699,0.0596726,-1.00693,0.42952,0.32732,-0.13678
-0.0495618,0.0713022,-0.986751,0.43148,0.32872,-0.14056
-0.00288899,0.0530045,-0.996603,0.43092,0.3276,-0.13818
0.0280019,0.0530759,-1.0006,0.43246,0.32802,-0.13608
0.0422545,0.00334776,-0.985669,0.43414,0.32844,-0.13356
0.0414593,-0.000878563,-0.969649,0.43274,0.33152,-0.13412
0.0371774,0.0161468,-0.975871,0.43302,0.329,-0.13524
-0.00399005,0.039591,-0.985964,0.43764,0.33362,-0.13454
-0.0150618,0.0153947,-0.97316,0.4361,0.33544,-0.1365
-0.0476655,0.011158,-0.995449,0.43442,0.33698,-0.13692
-0.017631,0.0147201,-0.996203,0.43568,0.33684,-0.13678
-0.0305379,0.0297215,-0.992924,0.43764,0.33866,-0.13776
-0.0100459,0.0406915,-0.976104,0.4298,0.34104,-0.13846
0.00561365,0.0497612,-0.966302,0.4368,0.34384,-0.14168
0.0257386,0.0454193,-0.967825,0.43218,0.34286,-0.14028
0.0157067,0.0299816,-0.980028,0.43778,0.34776,-0.13986
-0.00619217,0.0177863,-0.995805,0.43428,0.3451,-0.13846
-0.0336575,0.0145924,-0.998543,0.43736,0.34356,-0.13832
-0.0332905,0.0395202,-1.00331,0.43344,0.3465,-0.13944
-0.0257054,0.0626741,-1.00565,0.4354,0.3472,-0.13986
-0.0249102,0.0476688,-1.00565,0.43806,0.34328,-0.13888
0.0130764,0.0258772,-0.984974,0.43806,0.34902,-0.13692
0.0480657,0.00194098,-0.969667,0.43764,0.35238,-0.13888
0.0345471,-0.0141102,-0.981005,0.43498,0.3479,-0.14028
0.02947,-0.00731346,-0.998109,0.43946,0.34972,-0.13804
0.021579,0.00523965,-1.01251,0.44142,0.35364,-0.13538
0.0292253,0.00971321,-1.01694,0.4389,0.34916,-0.13804
0.0490444,0.00445244,-1.00641,0.43414,0.35056,-0.13356
0.0503901,-0.0144113,-0.998228,0.43806,0.35238,-0.13552
0.0164408,-0.0240382,-1.00786,0.43806,0.3556,-0.13678
0.00200462,-0.0105686,-1.01356,0.4424,0.35504,-0.13496
0.00506312,0.0150951,-1.01418,0.43834,0.35378,-0.13636
0.0165631,0.0317581,-1.00999,0.44324,0.35462,-0.13146
0.0147892,0.014792,-1.00711,0.4382,0.35504,-0.1295
0.0109354,-0.0159554,-1.01035,0.43974,0.35924,-0.13356
0.0153397,-0.0250186,-1.01214,0.43778,0.35994,-0.13664
0.0108743,-0.0310835,-1.0117,0.43988,0.36022,-0.1344
0.0100791,-0.0151595,-1.00607,0.44016,0.3626,-0.1379
0.0169301,0.0139965,-1.00039,0.44366,0.3633,-0.13552
0.0283689,0.031762,-0.996081,0.44114,0.3633,-0.13146
0.0433556,0.0123515,-0.982736,0.44394,0.36918,-0.13076
0.0419487,-0.00345079,-0.975948,0.44352,0.36834,-0.13636
0.0385232,-0.00418688,-0.982603,0.44492,0.36708,-0.13692
0.017236,0.000338447,-1.00046,0.44534,0.37058,-0.1358
-0.01549,0.00694243,-1.01669,0.44142,0.36918,-0.13244
-0.0348198,0.0193693,-1.02361,0.44268,0.3724,-0.13706
-0.0127374,0.0263587,-1.01382,0.44296,0.3696,-0.13804
-0.0156124,0.0312576,-1.00428,0.44394,0.3703,-0.12894
0.00854982,0.0294281,-0.991564,0.44296,0.37464,-0.1386
0.0196828,0.00971009,-0.987318,0.4424,0.371,-0.13244
0.0283078,-0.0116012,-0.981843,0.44436,0.3738,-0.12866
0.0339966,-0.0194389,-0.984733,0.44338,0.3766,-0.12978
0.049962,-0.0128802,-0.981413,0.44226,0.3766,-0.13258
0.0530816,-0.012083,-0.981666,0.44744,0.37576,-0.1351
0.0434779,-0.0129436,-0.990077,0.44422,0.38024,-0.13496
0.0452519,-0.00436842,-0.990753,0.44548,0.37814,-0.12796
0.0601162,-0.00123993,-0.989326,0.4424,0.37436,-0.12978
0.0362599,-0.0207244,-0.992138,0.44282,0.37996,-0.13216
0.0129541,-0.0651976,-1.0207,0.44674,0.37842,-0.13146
-0.0139608,-0.0567543,-1.04349,0.44604,0.37828,-0.13356
-0.0506017,-0.0468442,-1.11131,0.44604,0.3738,-0.12614
-0.0427719,0.0435594,-1.06528,0.4466,0.38192,-0.12824
-0.0140831,0.0976502,-1.00213,0.44534,0.3822,-0.13188
0.0322226,0.0974203,-0.98159,0.44744,0.37702,-0.12754
0.0518582,0.017744,-0.971937,0.44534,0.38024,-0.1267
0.0879486,-0.0621106,-0.968564,0.44786,0.3787,-0.1225
0.117494,-0.106015,-0.959788,0.44926,0.3808,-0.12306
0.130829,-0.110727,-0.952977,0.44786,0.38206,-0.11774
0.113762,-0.0883773,-0.969618,0.4494,0.38108,-0.1204
0.0570577,-0.0756564,-1.0111,0.44954,0.3829,-0.11606
0.0497173,-0.0526911,-1.0439,0.4501,0.38248,-0.11452
0.0725949,-0.00515567,-1.03827,0.44828,0.38122,-0.1176
0.0878874,0.0210632,-1.01416,0.4494,0.38458,-0.12278
0.0869087,0.0424382,-0.985601,0.44772,0.39158,-0.11592
0.0741241,0.0206912,-0.973709,0.44954,0.38752,-0.11732
0.0788342,-0.0230378,-0.975564,0.4466,0.38836,-0.11732
0.0916188,-0.065723,-0.985205,0.44632,0.39312,-0.12628
0.0896613,-0.0897326,-0.984226,0.44632,0.3913,-0.12264
0.0929034,-0.057883,-0.982639,0.4473,0.3941,-0.12824
0.0749193,-0.0107897,-0.995115,0.44828,0.39676,-0.11858
0.0607891,-0.000504746,-1.00027,0.45234,0.39088,-0.1225
0.0684965,-0.0280023,-0.99987,0.4529,0.399,-0.12292
0.0740018,-0.0508457,-0.995242,0.44744,0.40236,-0.12614
0.0725337,-0.0491313,-0.993343,0.44408,0.40418,-0.12782
0.0447625,-0.045098,-1.00348,0.44618,0.4039,-0.12404
0.0131987,-0.048232,-1.01892,0.4487,0.40992,-0.12684
-0.0049076,-0.00609978,-1.02816,0.448,0.40922,-0.12908
-0.0175086,0.0180888,-1.03105,0.44632,0.4109,-0.13286
0.0237812,0.0467048,-1.01312,0.4459,0.41398,-0.1253
0.0733901,0.0330017,-0.988073,0.44814,0.41692,-0.12908
0.0941268,-0.00710853,-0.976336,0.4473,0.4158,-0.12502
0.0979805,-0.0444069,-0.977087,0.4487,0.4214,-0.1253
0.0700257,-0.0736923,-1.01021,0.44982,0.41846,-0.12572
0.0440896,-0.0296027,-1.00231,0.4494,0.4228,-0.12166
0.0436614,0.00665558,-0.980353,0.44982,0.42532,-0.12656
0.0352811,-0.0116601,-0.997269,0.44772,0.42322,-0.11942
0.0289195,0.00934563,-1.01168,0.44814,0.42812,-0.12572
0.0210285,0.0169377,-1.01887,0.4487,0.42672,-0.12614
0.0194381,0.00285031,-1.02272,0.44268,0.42882,-0.12292
0.0166243,-0.029183,-1.0199,0.44562,0.42756,-0.13062
0.0264115,-0.0465127,-1.02024,0.44324,0.42756,-0.1288
0.0202945,-0.045596,-1.01588,0.4438,0.42882,-0.1274
0.00439025,-0.0357404,-1.00764,0.44632,0.43316,-0.12964
-0.0077826,-0.0367244,-1.01183,0.4529,0.43596,-0.12656
0.020478,-0.0321828,-1.01282,0.44828,0.43652,-0.13244
0.0361987,-0.0118436,-1.00412,0.44926,0.44058,-0.12866
0.0467199,0.0149862,-1.00023,0.44786,0.44184,-0.1281
0.0683742,0.0271815,-0.988732,0.4487,0.44436,-0.12516
0.0765098,0.0111374,-0.992732,0.4501,0.4473,-0.12446
0.0793236,0.0133432,-1.0057,0.44912,0.44646,-0.12334
0.0717997,0.0140145,-1.00611,0.44828,0.44758,-0.12222
0.0612784,0.0108874,-1.00724,0.44534,0.45178,-0.11844
0.0582199,0.0202572,-0.999038,0.44646,0.4522,-0.1218
0.0516135,-0.0149009,-0.970413,0.44604,0.4543,-0.12768
0.069047,-0.0216324,-0.964348,0.4466,0.45178,-0.119
0.0888661,-0.0331404,-0.966483,0.44604,0.4522,-0.11774
0.0930257,-0.0506557,-0.966375,0.44226,0.4564,-0.11928
0.0872145,-0.0418993,-0.970515,0.44324,0.45752,-0.11704
0.0706986,-0.0219381,-0.973462,0.44226,0.45738,-0.11592
0.0584034,0.00255684,-0.995496,0.441,0.45542,-0.1211
0.0471481,0.0296857,-1.00653,0.43862,0.45682,-0.12572
0.0216402,0.0375783,-1.0026,0.44422,0.45724,-0.12152
0.0350365,0.017126,-0.996836,0.43848,0.45864,-0.12544
0.052837,-0.00565213,-0.989613,0.4424,0.46186,-0.12194
0.0670284,-0.0144671,-0.989959,0.43526,0.462,-0.1253
0.0675178,-0.0136707,-0.989899,0.441,0.46326,-0.12754
0.0498396,-0.0163101,-0.996515,0.44562,0.4648,-0.13006
0.0366881,-0.0229292,-1.01433,0.44128,0.46312,-0.12936
0.0361987,-0.0073725,-0.998983,0.43848,0.4648,-0.12376
0.0354646,0.00457048,-0.999407,0.4396,0.4627,-0.12838
0.0369939,0.00628591,-0.997515,0.44002,0.469,-0.12726
0.0424992,0.00598148,-0.997592,0.43456,0.46886,-0.12334
0.0450684,-0.00344977,-0.999985,0.44086,0.46578,-0.12824
0.0516135,-0.0267216,-1.00172,0.44156,0.46382,-0.12838
0.0512465,-0.0263542,-1.00294,0.43652,0.469,-0.12964
0.0500843,-0.0141664,-1.00459,0.43876,0.46886,-0.12894
0.0473316,0.0038394,-1.00965,0.4354,0.47418,-0.12754
0.0432332,0.00206189,-1.00359,0.43806,0.47264,-0.12642
0.0458636,-0.0117179,-0.999132,0.4382,0.47292,-0.13034
0.0594433,-0.0382948,-0.994467,0.43694,0.47306,-0.12656
0.0648875,-0.0417841,-0.992709,0.43988,0.46886,-0.12894
0.0620125,-0.030883,-0.990987,0.43988,0.47194,-0.1295
0.062563,-0.00277032,-0.98218,0.43918,0.47362,-0.12684
0.0507572,0.00610668,-0.980556,0.43764,0.47306,-0.12824
0.0437226,-0.00786001,-0.98702,0.43946,0.47138,-0.13188
0.0303875,-0.0228087,-1.00845,0.43988,0.47194,-0.12978
0.0283689,-0.015276,-1.01999,0.44128,0.4711,-0.12586
0.0310604,-0.00235191,-1.01798,0.4396,0.47096,-0.12264
0.0235977,0.00217795,-1.00592,0.44142,0.47488,-0.1281
0.0281242,-0.0273418,-0.996702,0.44086,0.47656,-0.12936
0.039563,-0.0360351,-0.982428,0.44044,0.4732,-0.12866
0.047821,-0.0541004,-0.989363,0.43946,0.47614,-0.12768
0.0423157,-0.0307057,-0.995641,0.44016,0.47544,-0.13328
0.0309992,-0.0290558,-1.01181,0.43596,0.47642,-0.12698
0.0406029,-0.0175381,-1.01832,0.43708,0.47194,-0.12586
0.0398077,-0.0108012,-1.01477,0.43876,0.47838,-0.12572
0.0428662,0.00647157,-0.991907,0.43708,0.48034,-0.12614
0.0480045,-0.0164332,-0.975967,0.4375,0.47642,-0.12628
0.0677013,-0.0309424,-0.973578,0.43638,0.47978,-0.12992
0.0781614,-0.0427597,-0.983636,0.43512,0.48132,-0.1239
0.0640922,-0.0442955,-1.00408,0.43652,0.4823,-0.12474
0.0640922,-0.0411719,-1.01362,0.43792,0.48342,-0.1239
0.0667226,-0.0259204,-1.01197,0.4382,0.48706,-0.12404
0.0683742,-0.034617,-1.00152,0.44002,0.48398,-0.1225
0.0766933,-0.0423314,-0.993108,0.44226,0.48384,-0.12362
0.0586481,-0.0148986,-0.998862,0.44142,0.48426,-0.12978
0.0398077,0.0271722,-1.00351,0.43428,0.48832,-0.12404
0.013994,0.0685669,-1.00692,0.43554,0.48706,-0.13048
0.0126482,0.0301644,-1.01689,0.4361,0.48566,-0.12334
0.0305099,-0.00486323,-1.02226,0.4375,0.49112,-0.12292
0.0738183,-0.0220595,-1.01939,0.441,0.48328,-0.12292
0.0896002,-0.0162359,-1.01454,0.43316,0.48776,-0.12404
0.0893555,0.000790806,-0.996315,0.43414,0.49448,-0.12306
0.0516747,0.000594719,-0.999268,0.43274,0.49364,-0.12278
0.0497784,-0.0381754,-0.970045,0.43134,0.4956,-0.1253
0.0423769,-0.0368917,-0.976322,0.42882,0.49616,-0.12474
0.0179088,-0.00517359,-0.974232,0.43316,0.49798,-0.12908
0.0227413,0.00328012,-0.976139,0.43246,0.50148,-0.1316
0.0217626,0.00346354,-0.965559,0.4333,0.49952,-0.13454
0.0203556,-0.0236695,-0.956878,0.43106,0.50022,-0.13622
-0.0179368,-0.0544894,-0.925292,0.43036,0.49854,-0.13524
0.0223743,0.0124671,-0.972162,0.43246,0.50148,-0.13356
0.00891684,0.00131568,-0.957087,0.42868,0.4984,-0.12768
0.0440896,0.0204364,-0.940306,0.43036,0.50498,-0.12838
0.0704539,-0.0332689,-0.952004,0.4284,0.50582,-0.11942
0.0861746,-0.0551903,-0.952907,0.42826,0.5068,-0.1281
0.077305,-0.0509671,-0.972752,0.42812,0.50736,-0.1288
0.0815869,-0.021322,-0.97178,0.43218,0.50652,-0.12684
0.0744912,-0.0151384,-0.98142,0.4284,0.50848,-0.12922
0.0762651,0.0414547,-1.02177,0.42518,0.50736,-0.12488
0.0573024,0.0363037,-1.04898,0.42686,0.50624,-0.12124
0.0507572,0.0276045,-1.04285,0.42588,0.5082,-0.126
0.061829,0.0135212,-1.02999,0.42896,0.51086,-0.12894
0.0797518,-0.00643952,-0.996779,0.42868,0.5117,-0.13356
0.0761428,-0.0940856,-0.989509,0.42868,0.50904,-0.12628
0.0732678,-0.122873,-0.968107,0.4284,0.50722,-0.12292
0.0739406,-0.127589,-0.961262,0.42686,0.5096,-0.12866
0.0479433,-0.12037,-0.970788,0.4305,0.51086,-0.1253
0.0205392,-0.0822218,-0.978471,0.42504,0.51086,-0.12852
0.00640886,-0.0569313,-0.997504,0.42462,0.51114,-0.12698
0.0187652,0.00413628,-1.01666,0.42196,0.51422,-0.12362
0.0292253,0.0479315,-1.04695,0.42476,0.51324,-0.1239
0.0473316,0.0449363,-1.05868,0.42182,0.51044,-0.12894
0.0602997,0.0108871,-1.06184,0.42084,0.51506,-0.12614
0.0798741,-0.000192257,-1.04667,0.42322,0.51604,-0.12684
0.0854406,-0.0244444,-1.0347,0.42224,0.51604,-0.12684
0.0874592,-0.0537812,-1.02493,0.4221,0.51744,-0.12796
0.0894778,-0.0728284,-1.00917,0.42266,0.51604,-0.126
0.0852571,-0.0821394,-0.994484,0.41748,0.51996,-0.12684
0.0735124,-0.0697713,-1.00588,0.41972,0.52066,-0.12852
0.0621348,-0.0569743,-1.00249,0.41958,0.52276,-0.12348
0.0453742,-0.0451591,-1.01026,0.41874,0.5257,-0.12768
0.0202333,-0.0291205,-1.01557,0.41832,0.52724,-0.12516
0.018337,-0.0463316,-1.00915,0.41608,0.52892,-0.12992
0.0215179,-0.0619487,-1.00818,0.41538,0.53298,-0.12852
0.0312439,-0.027647,-1.0035,0.41118,0.53032,-0.12908
0.0392572,0.0167599,-1.02687,0.41076,0.53396,-0.13076
0.0535098,0.0315252,-1.0302,0.41188,0.53676,-0.1253
0.0712491,0.00764457,-1.02286,0.40978,0.53956,-0.1316
0.084156,-0.0347956,-0.997713,0.40656,0.5418,-0.13468
0.0908236,-0.0640696,-0.969367,0.40656,0.54152,-0.1323
0.0897225,-0.0897326,-0.964355,0.406,0.54614,-0.13258
0.0691694,-0.0619943,-0.988506,0.40656,0.5467,-0.13328
0.043845,-0.0209057,-1.02903,0.40432,0.546,-0.13244
0.0168689,0.0453551,-1.04698,0.40418,0.54978,-0.13398
0.0211509,0.0671605,-1.03928,0.40138,0.5474,-0.13104
0.0308769,0.0442572,-1.02898,0.40264,0.54754,-0.12894
0.0403583,-0.0217643,-0.995879,0.40096,0.55104,-0.13468
0.0414593,-0.0863798,-0.965446,0.39788,0.55132,-0.13748
0.0337519,-0.0742554,-0.980891,0.39382,0.55104,-0.13468
0.0336907,-0.0534925,-0.987673,0.39326,0.55608,-0.13272
0.0158902,-0.0200573,-1.00871,0.39256,0.5579,-0.13944
-0.0101071,-0.01143,-1.01494,0.39102,0.5565,-0.14378
-0.00857781,0.00761842,-1.01506,0.3934,0.56266,-0.13202
-0.0196496,0.0185781,-1.00702,0.38976,0.56728,-0.13244
-0.0351868,0.0155106,-0.99805,0.38906,0.56658,-0.13412
-0.0186709,0.0523256,-0.982376,0.3899,0.56966,-0.13902
-0.00521345,0.0454704,-0.978501,0.38976,0.5691,-0.13356
-0.00888366,-0.00652981,-0.968045,0.38836,0.56854,-0.13664
0.00640886,-0.041007,-0.945838,0.38556,0.57134,-0.1386
0.0299593,-0.0329759,-0.95177,0.38514,0.57498,-0.13062
0.0500843,0.0186009,-0.990763,0.38472,0.57218,-0.1379
0.0688023,0.0716472,-1.02406,0.3808,0.57344,-0.13524
0.0765098,0.0618502,-1.03803,0.385,0.5754,-0.13664
0.0625018,0.0418177,-1.02497,0.3801,0.57316,-0.13426
0.0593821,-0.00920233,-1.0147,0.38052,0.57876,-0.13608
0.0570577,-0.0431341,-1.01488,0.38122,0.57806,-0.14476
0.062563,-0.0397024,-0.990012,0.38122,0.57624,-0.14196
0.0559566,-0.0291701,-0.981799,0.38094,0.57806,-0.1372
0.0502066,-0.0466887,-0.987778,0.37772,0.57792,-0.14
0.0286136,-0.0502481,-0.995118,0.3766,0.57862,-0.14266
-0.0240538,-0.0488567,-1.02059,0.3808,0.57694,-0.14756
-0.0548224,-0.0329425,-1.01934,0.37982,0.57862,-0.1428
-0.0462586,-0.00972691,-1.01398,0.378,0.58086,-0.14462
-0.0366549,-0.00476274,-1.01333,0.3773,0.5768,-0.14154
-0.0123704,-0.0054285,-1.00857,0.37548,0.5824,-0.14602
0.000781215,0.0107451,-1.00145,0.37688,0.58016,-0.14112
-0.000931547,0.0176042,-1.00022,0.37086,0.58198,-0.1393
-0.00814962,0.0114771,-1.00491,0.37184,0.58744,-0.14
-0.0149395,-0.000713299,-0.99658,0.37422,0.59276,-0.14378
-0.0288251,-0.00929247,-0.989573,0.37254,0.59136,-0.13958
-0.0406309,0.00570925,-1.00048,0.36946,0.59052,-0.14014
-0.0379394,0.0398861,-1.00116,0.3731,0.59262,-0.13188
-0.0317613,0.0634071,-0.994505,0.37058,0.59304,-0.13804
0.00261632,0.0686244,-0.985794,0.37086,0.59472,-0.13776
0.00579716,0.0488426,-0.973272,0.36568,0.60158,-0.13594
0.00518546,0.0204236,-0.970891,0.37142,0.59752,-0.13594
-0.00606983,0.00216823,-0.970558,0.36386,0.59584,-0.13734
-0.0194661,-0.0168841,-0.970708,0.36484,0.5978,-0.13496
-0.0209342,-0.0105761,-0.975716,0.3633,0.60018,-0.13818
-0.0124927,-0.00163121,-0.988333,0.36442,0.59738,-0.13832
0.00983439,0.00646075,-0.988698,0.36344,0.6034,-0.13566
0.0357705,0.00677549,-0.991276,0.36204,0.59892,-0.13412
0.0436614,0.0116779,-0.992091,0.35966,0.60438,-0.13762
0.0375444,-0.0100669,-0.993118,0.36246,0.60158,-0.13482
0.0248822,-0.0120923,-0.993817,0.3626,0.60326,-0.1358
0.00726524,-0.00058353,-1.00037,0.35994,0.60298,-0.13328
-0.0105964,0.0078015,-1.0112,0.36288,0.60606,-0.12754
-0.0123092,0.0155793,-1.0101,0.35924,0.60424,-0.13188
-0.00698738,0.0427749,-1.001,0.35896,0.6062,-0.13342
-0.000258676,0.0376323,-0.997897,0.36162,0.60144,-0.13272
0.00757109,0.0186482,-0.99731,0.35714,0.60802,-0.12936
0.0225578,0.0234917,-1.00432,0.35462,0.60858,-0.12852
0.0607891,0.0149296,-0.992932,0.35546,0.61054,-0.1316
0.0839725,0.0132835,-0.99,0.3591,0.61222,-0.13188
0.0741853,-0.0125661,-1.00068,0.35532,0.61516,-0.13482
0.058954,-0.0169196,-1.00192,0.357,0.60942,-0.13342
0.0434168,-0.00688016,-0.993561,0.35196,0.61432,-0.13258
0.0325285,0.0367856,-0.980807,0.34972,0.61572,-0.13006
0.0267785,0.0682036,-0.988611,0.34804,0.61544,-0.12544
0.0179088,0.0778165,-1.00467,0.34944,0.61726,-0.12656
0.0213344,0.0628733,-1.01244,0.34664,0.61992,-0.12208
0.022986,0.0335364,-1.01954,0.34706,0.61936,-0.12418
0.0166243,0.0174875,-1.01617,0.34384,0.62538,-0.12908
0.0193157,9.41389e-05,-1.01398,0.3423,0.61992,-0.1253
0.0243317,0.0222061,-1.00463,0.3451,0.623,-0.12222
0.047821,0.0386893,-0.985801,0.3465,0.62538,-0.12516
0.0491667,0.0488568,-0.984152,0.3402,0.62874,-0.12488
0.0601162,0.0644784,-0.979655,0.34104,0.62958,-0.12236
0.0630524,0.0576197,-0.98963,0.34076,0.62734,-0.126
0.0695364,0.0490472,-0.999615,0.34244,0.6279,-0.12432
0.074063,0.0510698,-1.00452,0.33978,0.63126,-0.12824
0.0769991,0.0423737,-1.00465,0.33782,0.63182,-0.1218
0.0848289,0.0333116,-1.00021,0.3381,0.62972,-0.1239
0.0835443,0.0263903,-0.98963,0.33544,0.62482,-0.1169
0.0761428,0.0429246,-0.997066,0.33488,0.63098,-0.12222
0.0692917,0.0756897,-0.996919,0.33348,0.63014,-0.12264
0.0569965,0.0794217,-0.99768,0.33026,0.63602,-0.12306
0.0588316,0.0722564,-0.992978,0.33306,0.63196,-0.11564
0.062196,0.0627642,-0.98877,0.3311,0.63308,-0.12124
0.0697199,0.0462911,-0.995886,0.33292,0.63084,-0.1218
0.0783449,0.033187,-0.998358,0.33054,0.6335,-0.12292
0.0755311,0.0179968,-1.00312,0.32634,0.63812,-0.12012
0.0621348,0.00494671,-1.00682,0.32788,0.63728,-0.12614
0.0519806,0.0198877,-1.00997,0.32592,0.64036,-0.1232
0.0489832,0.0668634,-1.00475,0.32396,0.6384,-0.12012
0.0645816,0.084079,-0.988957,0.32424,0.6398,-0.12348
0.0898448,0.0878846,-0.970744,0.32312,0.63896,-0.12292
0.0992039,0.0829879,-0.97609,0.32102,0.6447,-0.12782
0.0897837,0.0527899,-1.0045,0.31934,0.64512,-0.1274
0.0675789,0.0108895,-1.03025,0.3199,0.64106,-0.12208
0.059321,-0.0117135,-1.03304,0.31626,0.63742,-0.13006
0.0632359,-0.0119572,-1.01985,0.3157,0.64484,-0.12418
0.077672,0.0139551,-1.00215,0.31668,0.64932,-0.13258
0.0954113,0.03552,-0.985442,0.3136,0.64554,-0.1281
0.101651,0.0431167,-0.985091,0.31276,0.64288,-0.12614
0.0961454,0.0428087,-0.991557,0.30912,0.6468,-0.12054
0.0743688,0.0209363,-1.01333,0.31136,0.65114,-0.12866
0.0501455,-0.00381559,-1.02452,0.3094,0.6489,-0.12292
0.0429886,0.00677785,-1.01581,0.30618,0.64414,-0.12726
0.0533263,0.0310964,-1.0066,0.3066,0.64568,-0.12978
0.0819539,0.042559,-0.994086,0.2982,0.64806,-0.12908
0.0878262,0.0197157,-0.996735,0.30142,0.64512,-0.12782
0.0619513,-0.0300256,-1.02559,0.301,0.64974,-0.126
0.044946,-0.022804,-1.0456,0.2954,0.65114,-0.12684
0.0491056,0.00978097,-1.01962,0.29428,0.64862,-0.12726
0.0379726,0.0300502,-1.0235,0.29568,0.64512,-0.12824
0.0428662,0.0302355,-1.00609,0.29302,0.64792,-0.12558
0.0481269,0.0419355,-0.99167,0.2933,0.65044,-0.12628
0.0454965,0.028154,-0.996557,0.29106,0.6531,-0.1225
0.0309992,0.0422974,-1.00379,0.294,0.65268,-0.12362
0.0235365,0.0444998,-1.0056,0.29218,0.64904,-0.12432
0.033079,0.0517301,-1.00404,0.29078,0.65436,-0.12782
0.0536933,0.053758,-0.991317,0.2877,0.65618,-0.12656
0.0774885,0.0649129,-0.984654,0.28532,0.6524,-0.12432
0.0884991,0.0584855,-0.984441,0.28854,0.6503,-0.12488
0.0878262,0.0580565,-0.97698,0.28854,0.65352,-0.11942
0.0794459,0.0553589,-0.975429,0.2842,0.65716,-0.11858
0.0555284,0.0694992,-0.976034,0.2849,0.65912,-0.12152
0.0517359,0.084626,-0.973147,0.28462,0.65744,-0.12698
0.0531428,0.078563,-0.966671,0.28434,0.65604,-0.12824
0.062196,0.0776473,-0.961499,0.28238,0.65996,-0.1253
0.0640311,0.0738505,-0.968047,0.28406,0.65996,-0.12642
0.0585869,0.0578632,-0.979468,0.2786,0.65828,-0.12908
0.0554061,0.039978,-0.986616,0.27916,0.6636,-0.12852
0.0542439,0.0279119,-0.988632,0.28028,0.66094,-0.1337
0.059321,0.0356919,-0.978435,0.27538,0.66444,-0.12698
0.0603609,0.0549239,-0.972809,0.27692,0.65884,-0.1302
0.0636029,0.0728092,-0.974099,0.27482,0.66192,-0.12852
0.0651321,0.0701761,-0.982602,0.27664,0.65968,-0.12922
0.0620736,0.0656428,-0.993172,0.27286,0.6587,-0.13342
0.0721055,0.037901,-0.99461,0.27384,0.66052,-0.13048
0.0534487,0.023808,-0.983128,0.27342,0.66584,-0.1323
0.0549779,0.0413865,-0.982274,0.27216,0.65912,-0.13468
0.0320391,0.0517298,-0.980742,0.27258,0.66248,-0.12936
0.00965088,0.044189,-0.997312,0.26642,0.66528,-0.1344
-0.00931185,0.0307084,-1.00637,0.26334,0.66164,-0.12894
-0.00974004,0.0211537,-1.00827,0.26614,0.66486,-0.1337
-0.00148208,0.0192577,-0.998753,0.26334,0.66458,-0.12824
0.0139328,0.0302261,-0.984792,0.26586,0.66766,-0.13076
0.0349753,0.0483621,-0.972191,0.26068,0.66444,-0.12768
0.0640922,0.0713394,-0.965969,0.26138,0.66374,-0.13118
0.0913129,0.0580577,-0.967207,0.26278,0.66752,-0.12978
0.107768,0.0261532,-0.965913,0.26278,0.66584,-0.133
0.107645,0.0195385,-0.977164,0.26278,0.66766,-0.1302
0.0971241,0.0300083,-0.986793,0.25998,0.66416,-0.13104
0.0793848,0.0453143,-0.997441,0.25858,0.66542,-0.13426
0.0552838,0.027361,-1.00416,0.26166,0.6671,-0.13272
0.032712,0.0252712,-1.01688,0.25998,0.66682,-0.13384
0.0149727,0.00854484,-1.02955,0.25858,0.66598,-0.1379
0.0276349,0.00530289,-1.03222,0.259,0.66654,-0.14126
0.0482492,0.0084945,-1.02432,0.26782,0.66654,-0.13342
0.0864805,0.0371708,-1.00614,0.2625,0.66052,-0.1281
0.116087,0.0501649,-0.995768,0.26642,0.66402,-0.12474
0.12881,0.0510878,-0.981924,0.26278,0.6657,-0.13398
0.142451,0.0496836,-0.99425,0.26502,0.66374,-0.13412
0.0934539,0.0589158,-0.998822,0.26138,0.66276,-0.13034
0.0729619,0.0506407,-1.01301,0.26222,0.66388,-0.13188
0.0333237,0.0401545,-1.01755,0.26082,0.66598,-0.1309
0.041337,0.0288876,-1.01428,0.25942,0.66178,-0.1337
0.0496561,0.00929118,-1.00244,0.25914,0.66416,-0.1351
0.0645204,0.00972478,-0.989581,0.26124,0.66332,-0.13678
0.0823209,0.0205101,-0.981863,0.2562,0.66402,-0.1323
0.0733901,0.0624616,-0.969236,0.266,0.66388,-0.1267
0.0804858,0.0859829,-0.969985,0.25956,0.66794,-0.13286
0.0857465,0.0706728,-0.975138,0.26068,0.66766,-0.13412
0.102691,0.0560402,-0.989249,0.25718,0.66962,-0.13314
0.120002,-0.00324148,-1.01364,0.25592,0.67256,-0.13818
0.102507,-0.00637082,-1.00577,0.25312,0.66584,-0.13328
0.0685577,-0.00864809,-0.986844,0.25158,0.6657,-0.13384
0.0436003,0.01964,-0.976988,0.25634,0.66444,-0.12978
0.0297758,0.0206767,-0.978112,0.2478,0.66934,-0.1316
0.0135046,0.0284497,-0.986197,0.2471,0.6671,-0.1309
0.00487961,0.0699113,-1.0086,0.2485,0.67088,-0.12894
0.0280019,0.0919067,-1.01563,0.24654,0.67144,-0.133
0.0848289,0.0671814,-1.02674,0.24682,0.66864,-0.13552
0.0851959,0.0257171,-1.02088,0.2464,0.66528,-0.13076
0.05143,0.0408341,-1.01345,0.24514,0.66948,-0.13524
0.0428051,0.0388101,-1.01348,0.2429,0.67256,-0.13104
0.0322226,0.0101429,-1.01181,0.24514,0.66598,-0.13552
0.0476375,0.00910677,-1.01638,0.24528,0.66906,-0.13356
0.0590151,0.0606807,-1.00784,0.24318,0.66514,-0.1309
0.0787119,0.0385769,-1.00796,0.24052,0.67172,-0.13174
0.0947385,0.0344173,-1.01748,0.24486,0.66878,-0.1295
0.0459247,0.111757,-0.993303,0.24444,0.66766,-0.13104
0.0124647,0.0558269,-0.957026,0.2422,0.66976,-0.13734
0.0490444,0.00898474,-0.960742,0.2401,0.66948,-0.12852
0.0755922,0.0380247,-0.969063,0.2429,0.67074,-0.12726
0.105015,0.0415254,-0.973729,0.23842,0.67074,-0.1274
0.112233,0.0249297,-0.980416,0.23926,0.67214,-0.13034
0.0941879,0.0327022,-0.994977,0.23842,0.66668,-0.12936
0.0498396,0.0293804,-1.01381,0.23688,0.6692,-0.13328
0.0250046,0.00897686,-1.01888,0.23268,0.66906,-0.13118
0.0295312,-0.00161744,-1.02709,0.23646,0.67242,-0.12922
0.053571,0.0317702,-1.0255,0.23394,0.6706,-0.13286
0.0842172,0.0578104,-1.02484,0.2387,0.6706,-0.13356
0.102079,0.063696,-1.01817,0.23268,0.67102,-0.1323
0.0699646,0.0810184,-1.01441,0.22666,0.6699,-0.1309
0.0310604,0.0762284,-1.00336,0.22736,0.67214,-0.12446
0.0136269,0.0485389,-0.995732,0.22918,0.66892,-0.1358
0.0128929,0.0126477,-1.00283,0.22736,0.6699,-0.13496
0.0466588,-0.00136684,-0.998644,0.2303,0.67088,-0.13328
0.0907012,0.0363759,-0.987997,0.22442,0.6713,-0.1309
0.111805,0.0742949,-0.982301,0.22358,0.6692,-0.13426
0.0867863,0.0948046,-0.982718,0.21574,0.67046,-0.13426
0.0460471,0.0750696,-0.991964,0.22106,0.67102,-0.13552
0.021212,0.0141816,-1.00866,0.2163,0.67298,-0.14112
0.00157643,-0.015346,-1.01558,0.21434,0.67536,-0.13552
0.00812162,-0.0339018,-0.997443,0.21952,0.67382,-0.14364
0.021212,0.0146104,-0.987688,0.21854,0.67298,-0.14238
0.0513077,0.00714806,-0.979274,0.21364,0.67424,-0.13678
0.0662332,0.0303044,-0.988298,0.21756,0.67718,-0.13888
0.0788954,0.0456204,-0.992059,0.21406,0.67424,-0.13132
0.0939432,0.0407868,-0.991062,0.20972,0.67508,-0.14
0.0960842,0.052792,-0.993084,0.2093,0.67438,-0.14098
0.11052,0.0525517,-0.990372,0.21028,0.67326,-0.13286
0.116026,0.0393241,-0.986537,0.20594,0.67592,-0.13664
0.106972,0.0289703,-0.986331,0.20552,0.6734,-0.13412
0.106605,0.0439146,-0.998189,0.20328,0.67676,-0.13734
0.0924752,0.0425012,-1.00194,0.20468,0.67914,-0.13944
0.0749805,0.0220389,-1.00618,0.2065,0.67844,-0.14294
0.065805,-0.00466792,-1.01086,0.20328,0.6804,-0.14014
0.0552226,-0.00246648,-1.01493,0.20132,0.6734,-0.14434
0.070821,-0.0151396,-1.00764,0.20426,0.67984,-0.14084
0.0766321,-0.0137902,-1.00594,0.20622,0.68054,-0.14504
0.0725337,0.00568508,-1.00831,0.20748,0.672,-0.1393
0.102752,-0.0377294,-1.00412,0.20174,0.67732,-0.14042
0.109113,-0.0105947,-1.00481,0.20314,0.67704,-0.14056
0.0881933,0.00722139,-1.0042,0.19852,0.6783,-0.14084
0.072289,0.016832,-1.00788,0.20048,0.67704,-0.147
0.0511854,0.0271146,-1.00061,0.19572,0.67998,-0.13986
0.0751029,-0.0142807,-0.994077,0.19782,0.68138,-0.1379
0.0753475,-0.00472604,-1.00423,0.19418,0.67718,-0.13734
0.0839725,0.00311644,-1.00975,0.19446,0.67984,-0.13356
0.0794459,0.0286551,-1.01621,0.196,0.67746,-0.14266
0.0477598,0.0302371,-1.05721,0.19726,0.68054,-0.13748
0.0609726,0.0515555,-1.00191,0.1897,0.68068,-0.14588
0.0432332,0.0197624,-0.982184,0.18774,0.67732,-0.14308
0.069414,-0.0305131,-0.977251,0.1869,0.6797,-0.14014
0.0514912,-0.0109811,-1.01773,0.18662,0.6727,-0.14238
0.0825656,0.00672957,-1.00204,0.1848,0.68208,-0.14196
0.071555,0.0410857,-0.972414,0.18004,0.68432,-0.14266
0.072289,0.0159745,-0.942523,0.1764,0.68166,-0.14812
0.0659273,-0.0251245,-0.945509,0.17584,0.67746,-0.1519
0.0680683,-0.0390882,-0.956523,0.17374,0.67998,-0.14756
0.0677013,-0.0381696,-0.955543,0.16968,0.67984,-0.15022
0.0752864,-0.00772718,-0.951401,0.1708,0.67956,-0.15148
0.077305,0.0138938,-0.948957,0.16534,0.67858,-0.15218
0.0700869,0.0195874,-0.946246,0.15834,0.67634,-0.14966
0.0595045,0.0128467,-0.956673,0.15778,0.67662,-0.15274
0.0609114,0.0253417,-1.0191,0.1582,0.67816,-0.14546
0.0724725,-0.0129341,-1.01431,0.15596,0.67704,-0.14728
0.0570577,0.00310762,-1.02728,0.15386,0.67998,-0.15498
0.0825044,-0.00104886,-1.02907,0.15344,0.67928,-0.14952
0.0573635,0.0497782,-1.02691,0.15372,0.68222,-0.14798
0.0714938,0.0400445,-1.02622,0.15526,0.68236,-0.15344
0.0743076,0.048865,-1.00366,0.15148,0.68124,-0.15358
0.0574247,0.070786,-0.992852,0.1505,0.68166,-0.15232
0.0612784,0.0269955,-1.03946,0.15218,0.68026,-0.1512
0.031978,-0.0285042,-1.05932,0.15288,0.67886,-0.15372
0.0240258,-0.0567418,-1.05166,0.14938,0.67816,-0.1526
0.00628652,-0.0201217,-1.03974,0.14938,0.6783,-0.15372
0.0329567,0.00542712,-1.06011,0.15428,0.679,-0.15316
0.0105073,0.0440668,-1.07472,0.15414,0.67802,-0.14882
0.0384008,0.021292,-1.01354,0.14924,0.68152,-0.1491
0.0634194,-0.00399498,-0.970933,0.14602,0.67746,-0.1484
0.0818316,-0.0040502,-0.947933,0.14854,0.6769,-0.15736
0.101712,-0.00183878,-0.954468,0.14406,0.67494,-0.1442
0.0851348,0.00452551,-0.961697,0.14686,0.6769,-0.14798
0.0551614,-0.00307898,-0.980876,0.14868,0.67704,-0.15162
0.0276349,0.00315923,-0.993394,0.14574,0.68124,-0.15274
-0.00191027,0.00455824,-0.998815,0.14168,0.67984,-0.15134
-0.0400804,-0.0170746,-1.01706,0.13818,0.6797,-0.15302
-0.0418543,-0.0500262,-1.02433,0.13636,0.67998,-0.1512
-0.00704855,-0.0319468,-1.02724,0.12964,0.67704,-0.15302
0.0303264,0.0332325,-1.02446,0.1309,0.6797,-0.15582
0.0500843,0.0761121,-0.985739,0.13216,0.67452,-0.15008
0.0721667,0.0549278,-0.967033,0.12922,0.67858,-0.14826
0.0574859,0.0291991,-0.956482,0.1288,0.67928,-0.1512
0.021212,-0.00535625,-0.97846,0.12516,0.67648,-0.14882
-0.00509111,0.0165617,-1.00718,0.12502,0.67676,-0.14756
0.0182759,0.0241027,-0.994526,0.12292,0.67718,-0.15554
0.0250657,0.0531362,-0.994968,0.12334,0.67354,-0.15218
0.0572412,0.0426734,-0.978978,0.12124,0.6762,-0.15372
0.0851959,0.0240022,-0.971232,0.1176,0.67732,-0.15064
0.0858076,0.0149378,-0.976004,0.12124,0.67816,-0.15498
0.0918023,0.00624262,-0.982197,0.11606,0.67984,-0.15246
0.0910071,0.00275126,-0.964893,0.11494,0.67732,-0.14784
0.0725949,0.00678755,-0.965942,0.1148,0.67214,-0.15358
0.0364434,0.0199439,-0.996228,0.11886,0.67186,-0.14994
0.00726524,0.0089098,-1.02262,0.12012,0.67368,-0.15456
-0.000686867,-0.00842579,-1.02719,0.11956,0.67466,-0.15288
0.0331402,-0.024094,-1.00717,0.11396,0.67326,-0.1547
0.0519194,-0.00314129,-0.986247,0.11158,0.67382,-0.15582
0.0597492,0.0188491,-0.965905,0.10752,0.67018,-0.15036
0.0549779,0.0451226,-0.967966,0.10934,0.67662,-0.15092
0.0696587,0.0443924,-0.981457,0.11046,0.67452,-0.14868
0.0671507,0.00562207,-0.97626,0.10738,0.6762,-0.15064
0.00543014,-0.0472546,-1.01486,0.10528,0.67312,-0.1491
-0.0693197,-0.0540775,-1.07207,0.1036,0.67774,-0.15162
-0.116421,-0.0527455,-1.10911,0.10164,0.67564,-0.15582
-0.0867532,-0.0488772,-1.07593,0.10066,0.67788,-0.14994
-0.0539048,-0.00311471,-1.01567,0.09842,0.67452,-0.1554
0.0306934,0.0350701,-0.984226,0.09646,0.67592,-0.14756
0.0848289,0.0711625,-0.968777,0.0994,0.67662,-0.14742
0.1063,0.0874001,-0.967855,0.09856,0.67494,-0.14168
0.097797,0.0794964,-0.980244,0.09436,0.67536,-0.1442
0.0553449,0.0533911,-1.01639,0.0931,0.67452,-0.14546
0.0308157,0.0676537,-1.03564,0.09618,0.67242,-0.1421
0.0193157,0.0828393,-1.02833,0.09212,0.67466,-0.14112
0.0083663,0.057908,-1.00782,0.0917,0.6748,-0.14756
-0.0154289,0.0340138,-0.996328,0.08722,0.67242,-0.14294
-0.0246044,0.0171677,-0.980898,0.08708,0.672,-0.1449
-0.024115,0.0060209,-0.981757,0.08918,0.66738,-0.14294
0.00665354,-0.00695345,-0.964664,0.08078,0.66766,-0.14588
0.0155232,0.0164459,-0.979113,0.08316,0.66836,-0.14658
0.0236588,0.000953024,-0.972413,0.07896,0.66892,-0.14504
-0.0116363,0.0144771,-0.999215,0.07882,0.6713,-0.14826
-0.00154325,-0.00695614,-0.972956,0.07742,0.66948,-0.14742
-0.0168358,0.0319921,-1.01234,0.07266,0.66472,-0.14266
-0.0174475,0.058757,-1.03037,0.0721,0.665,-0.14616
-0.00784377,0.0409372,-1.01658,0.06832,0.66612,-0.14686
-0.0224022,0.0128199,-1.00408,0.06286,0.66276,-0.14686
-0.00662036,-0.0130825,-0.966157,0.0623,0.66402,-0.15134
0.0229248,0.0109361,-0.958041,0.05992,0.66416,-0.15134
0.0271455,0.0457872,-0.981463,0.05894,0.66276,-0.14994
-0.0103517,0.0577181,-1.003,0.05558,0.66094,-0.14742
-0.0401416,0.0510937,-1.01142,0.05012,0.66024,-0.14938
-0.0354926,0.0338847,-0.996089,0.0532,0.6636,-0.15176
-0.0220352,0.0278869,-0.977846,0.0518,0.66542,-0.14532
-0.0167134,0.013128,-0.98306,0.049,0.66066,-0.14798
-0.0374501,0.01306,-1.01883,0.04536,0.66192,-0.1484
-0.0481548,0.039699,-1.03213,0.04718,0.6594,-0.1491
-0.0228916,0.0753533,-1.03665,0.042,0.65912,-0.14602
-0.021607,0.0705151,-1.02571,0.04074,0.66374,-0.14602
-0.0190991,0.0545304,-1.00304,0.04242,0.6566,-0.14966
-0.0196496,0.0445469,-0.985615,0.04144,0.65912,-0.14644
-0.0258889,0.0370727,-0.984376,0.04018,0.65548,-0.14868
-0.033841,0.0414799,-0.980013,0.03528,0.65632,-0.14686
-0.0118198,0.0253178,-0.979036,0.03416,0.6545,-0.14602
0.0250046,0.0195114,-0.978649,0.03262,0.65128,-0.14784
0.0345471,0.0360513,-0.988455,0.03038,0.64792,-0.15204
0.0322838,0.0569359,-0.991257,0.03164,0.65016,-0.15008
0.026962,0.0468896,-0.988677,0.02632,0.65184,-0.1505
0.0123424,0.0138725,-0.982834,0.028,0.65366,-0.15302
-0.0168969,-0.0233142,-0.988447,0.02688,0.6531,-0.1526
-0.0460139,-0.0784463,-0.972052,0.02282,0.6454,-0.15036
-0.0373277,-0.0309156,-0.998174,0.0224,0.64638,-0.154
-0.0296203,-0.0268095,-1.01666,0.02338,0.65086,-0.15274
-0.0123092,-0.021659,-1.00038,0.021,0.65716,-0.1554
0.0217626,-0.00327366,-0.976504,0.01806,0.65562,-0.1582
0.0403583,0.0398505,-0.969639,0.0161,0.65394,-0.15596
0.0532651,0.0497768,-0.968755,0.0154,0.65268,-0.15904
0.047087,0.0285832,-0.979381,0.014,0.64974,-0.1589
0.0246987,0.00248455,-1.01295,0.00896,0.65086,-0.14924
-0.000197506,-0.0133254,-1.03826,0.0098,0.64386,-0.15106
-0.0142055,0.00743283,-1.02831,0.00658,0.64624,-0.15008
-0.0189767,0.0507944,-1.01508,0.00126,0.644,-0.147
-0.0146948,0.0806232,-1.00702,0.00168,0.6433,-0.15008
-0.0104741,0.0697838,-1.0104,0.00252,0.6433,-0.14588
-0.00270548,0.039224,-0.999846,-0.0021,0.63994,-0.14476
-0.00662036,0.0228084,-1.01494,-0.00112,0.63938,-0.14518
-0.0170193,0.0236012,-1.01026,-0.00112,0.6384,-0.14476
-0.0277852,0.0149006,-0.997948,-0.00294,0.63812,-0.14518
-0.0286416,0.0104905,-0.995134,-0.00868,0.63448,-0.14798
-0.0465033,0.0017875,-0.995209,-0.00658,0.63672,-0.15512
-0.0506628,-0.00470608,-0.997522,-0.0084,0.63588,-0.15106
-0.0347586,-0.0128468,-0.991208,-0.0154,0.63154,-0.14756
-0.0180592,-0.0226409,-0.996697,-0.0126,0.63546,-0.14882
-0.0257054,0.00234554,-1.01141,-0.01582,0.63196,-0.1491
-0.0401416,0.0372518,-1.00934,-0.01554,0.63154,-0.15134
0.0343024,0.0743308,-0.932627,-0.01372,0.62944,-0.14532
-0.0257054,0.0652465,-0.975506,-0.01512,0.63182,-0.14896
-0.0290086,0.046075,-1.01096,-0.02198,0.62804,-0.1491
-0.0249714,0.00932797,-1.0119,-0.01988,0.62958,-0.154
-0.00870015,0.0179079,-0.997021,-0.02324,0.6258,-0.15064
-0.00484643,0.0103758,-0.996972,-0.02254,0.62412,-0.15358
-0.0111469,-0.0119203,-0.993474,-0.02408,0.62622,-0.14924
-0.0165911,-0.00775728,-0.997983,-0.02646,0.62524,-0.14854
-0.0140219,0.000389453,-0.993586,-0.02464,0.6244,-0.14714
0.0121588,0.0370239,-0.992795,-0.02296,0.61978,-0.15008
0.0198663,0.0575443,-0.996298,-0.02408,0.61978,-0.15092
0.0303875,0.0788006,-0.991982,-0.02758,0.6237,-0.15022
0.0298982,0.0951534,-0.988493,-0.0273,0.62146,-0.15092
0.0272679,0.0727361,-0.988306,-0.02814,0.6174,-0.14896
0.0199274,0.0414975,-0.987191,-0.02884,0.61642,-0.1519
0.0127706,0.011729,-0.998426,-0.0315,0.61404,-0.15148
0.00457376,-0.0184686,-0.993151,-0.02884,0.6153,-0.15568
0.00267749,-0.013202,-0.993695,-0.03094,0.61628,-0.15484
0.00616418,-3.26646e-05,-0.993275,-0.03052,0.61432,-0.15302
0.0124647,0.0520909,-0.991571,-0.03346,0.60844,-0.15344
0.026228,0.0704696,-0.989098,-0.03626,0.6125,-0.15302
0.0382173,0.0917263,-0.982708,-0.03892,0.6125,-0.15008
0.0484939,0.0930159,-0.980779,-0.03976,0.60928,-0.15568
0.0269008,0.0663662,-0.992403,-0.04186,0.6104,-0.15372
0.00536897,0.0180963,-0.996082,-0.04228,0.61082,-0.15526
0.0010259,-0.00021809,-0.985496,-0.0385,0.60858,-0.15666
0.00231047,0.00278345,-0.998399,-0.0406,0.60718,-0.1561
0.0206615,0.0203062,-0.989581,-0.04494,0.6055,-0.15974
0.0325897,0.0498925,-0.986429,-0.04494,0.60676,-0.1554
0.0374833,0.0635523,-0.980632,-0.04172,0.60144,-0.1568
0.0300817,0.0664285,-0.977432,-0.04214,0.60452,-0.1533
0.0194381,0.0476221,-0.982053,-0.04564,0.60522,-0.1533
0.0107519,0.0337161,-0.989613,-0.04676,0.60228,-0.15176
0.00683705,0.0255689,-0.999692,-0.04564,0.60074,-0.1554
0.0127094,0.0261833,-1.0035,-0.05012,0.60326,-0.15246
0.0308769,0.0435835,-0.999204,-0.04984,0.60312,-0.15316
0.0505737,0.0487347,-0.998279,-0.05278,0.59892,-0.15358
0.0509407,0.0535734,-0.995833,-0.0518,0.60158,-0.15484
0.0415205,0.0574289,-0.993117,-0.05264,0.60032,-0.1491
0.0423157,0.0641664,-0.989205,-0.0539,0.59724,-0.14602
0.0288583,0.0555873,-0.996201,-0.05222,0.59962,-0.1456
0.0142998,0.0459667,-1.00851,-0.05446,0.60242,-0.1575
0.0077546,0.031449,-1.00709,-0.05572,0.60032,-0.14966
0.00989556,0.0412492,-1.00282,-0.0546,0.60452,-0.15092
0.0188264,0.0507455,-0.996969,-0.05488,0.6006,-0.15008
0.0298982,0.0606099,-0.993329,-0.05656,0.59976,-0.14686
0.0368716,0.0584686,-1.00032,-0.05586,0.60102,-0.15204
0.0190711,0.0601164,-1.00278,-0.05936,0.60396,-0.15092
0.00824396,0.0748735,-0.997486,-0.05362,0.60144,-0.154
0.00316685,0.0806291,-0.996126,-0.05852,0.59948,-0.14994
0.000353025,0.0830168,-0.995139,-0.0567,0.59878,-0.14924
-0.00191027,0.0589458,-0.999906,-0.05796,0.59668,-0.14686
-0.00766026,0.0541667,-1.00338,-0.0581,0.5985,-0.14434
-0.00606983,0.0580258,-1.00069,-0.06202,0.59836,-0.14434
0.0157067,0.060789,-0.996775,-0.05978,0.5985,-0.1421
0.0188264,0.0816141,-0.995068,-0.05824,0.59962,-0.14672
0.0262891,0.0856589,-0.996433,-0.06188,0.5978,-0.14924
0.0314274,0.0742686,-0.997733,-0.06286,0.5943,-0.14784
0.020111,0.0522771,-1.00633,-0.06608,0.59528,-0.1456
-0.00166559,0.0452878,-1.00774,-0.06286,0.59374,-0.14574
-0.0149395,0.055083,-1.01143,-0.0623,0.595,-0.14812
-0.00918951,0.0653744,-1.00887,-0.06566,0.59346,-0.1484
0.00732641,0.0484143,-0.99382,-0.06524,0.5936,-0.14784
0.0126482,0.0566845,-1.0005,-0.06272,0.59374,-0.14448
0.0332014,0.0370921,-0.989429,-0.06384,0.59388,-0.1463
0.0573635,0.0536368,-0.998969,-0.06678,0.59808,-0.14364
0.0462918,0.0696187,-0.993189,-0.06286,0.59486,-0.14238
0.0168689,0.0985178,-0.98436,-0.06398,0.5922,-0.14574
-0.0121257,0.128826,-0.973087,-0.0658,0.59416,-0.14434
-0.0294368,0.106342,-0.974083,-0.06692,0.59486,-0.14294
0.0315498,0.0581606,-0.99529,-0.0658,0.5873,-0.14028
0.0319168,0.0290682,-1.01798,-0.06916,0.58814,-0.1407
0.0495338,0.0480607,-1.0116,-0.06258,0.59234,-0.14252
0.0500231,0.0424261,-1.01081,-0.07042,0.58884,-0.14252
0.0436003,0.0588383,-1.01336,-0.07,0.58898,-0.14868
0.0385232,0.06686,-1.0172,-0.0693,0.59136,-0.14098
0.0399912,0.07764,-1.01335,-0.06944,0.5908,-0.15064
0.0289806,0.0820462,-1.01509,-0.07028,0.58884,-0.14322
0.0149115,0.0975372,-1.01291,-0.0735,0.58842,-0.13958
-0.000197506,0.124175,-1.01042,-0.07714,0.58604,-0.1379
-0.0125539,0.128274,-0.997786,-0.07882,0.58814,-0.14322
-0.0419155,0.119506,-0.998074,-0.07896,0.58394,-0.13636
-0.0566575,0.0867342,-1.00672,-0.07994,0.5838,-0.13328
-0.0588596,0.0983705,-1.01692,-0.0763,0.5824,-0.13916
-0.0493782,0.115768,-1.00851,-0.08036,0.5803,-0.13958
-0.0378171,0.149274,-1.00236,-0.08218,0.57862,-0.13468
-0.029498,0.171509,-0.989784,-0.08806,0.5796,-0.13664
-0.0417932,0.15062,-0.991711,-0.08764,0.5761,-0.13566
-0.053599,0.107376,-0.986183,-0.08596,0.5726,-0.13916
-0.0754979,0.063699,-0.998176,-0.08974,0.57232,-0.13846
-0.0868143,0.0274982,-1.00506,-0.0924,0.56854,-0.14126
-0.0746415,0.0309932,-1.00748,-0.09268,0.56882,-0.1365
-0.0545165,0.0467404,-0.991877,-0.09282,0.56812,-0.13636
-0.0378171,0.0812281,-0.979873,-0.09352,0.56602,-0.13832
-0.0309049,0.0966647,-0.97298,-0.091,0.56504,-0.13566
-0.032373,0.10236,-0.97432,-0.09254,0.56406,-0.13566
-0.0357373,0.0978881,-0.972355,-0.0945,0.56574,-0.1351
-0.0384288,0.0999083,-0.977239,-0.09744,0.56854,-0.13622
-0.042099,0.0938436,-0.974539,-0.0973,0.56546,-0.13846
-0.0387958,0.0947022,-0.974854,-0.09604,0.56756,-0.13664
-0.0378783,0.0759608,-0.977061,-0.0945,0.5635,-0.13762
-0.0444235,0.0758974,-0.977654,-0.09282,0.56574,-0.13888
-0.0397134,0.0762052,-0.984087,-0.09422,0.56434,-0.1393
-0.0307214,0.0810467,-0.991447,-0.09408,0.56658,-0.1365
-0.0149395,0.0874828,-0.990511,-0.09394,0.57148,-0.13734
-0.00227729,0.0830772,-0.990608,-0.09646,0.56658,-0.14266
0.0193769,0.0860241,-0.992134,-0.09436,0.5663,-0.1456
0.00848865,0.0658702,-0.986422,-0.09114,0.56644,-0.14028
0.00127058,0.0618868,-0.98946,-0.09268,0.56742,-0.14476
0.0106296,0.0323686,-0.978363,-0.09408,0.56784,-0.147
0.00169877,0.0732789,-0.988481,-0.09156,0.56924,-0.14812
-0.00386771,0.0909775,-0.989318,-0.08946,0.56406,-0.14644
-0.01549,0.12956,-0.992398,-0.08876,0.5663,-0.1407
-0.0152453,0.123006,-0.994539,-0.09646,0.56378,-0.14336
-0.00918951,0.0859535,-0.985392,-0.0987,0.56574,-0.14448
-0.00545813,0.0694792,-0.991519,-0.0959,0.56126,-0.14322
-0.00558047,0.0684992,-0.997999,-0.09576,0.56406,-0.14826
0.00322802,0.065501,-0.992032,-0.09646,0.56308,-0.14532
0.00561365,0.0854684,-0.991913,-0.0959,0.56406,-0.15148
0.0194381,0.116219,-0.997754,-0.09688,0.56462,-0.15358
0.0682518,0.156658,-1.00662,-0.09408,0.56308,-0.15162
0.0292865,0.111935,-1.02413,-0.09786,0.5663,-0.14602
0.0154009,0.0805106,-1.03786,-0.09506,0.56168,-0.14756
0.0169301,0.0798374,-1.03535,-0.09646,0.56196,-0.15148
0.00916152,0.0715664,-1.0302,-0.10178,0.56182,-0.15218
-0.0385511,0.0733882,-1.02536,-0.09772,0.56154,-0.14588
-0.0480325,0.0704452,-1.01696,-0.09716,0.55944,-0.14854
-0.0574527,0.0567227,-0.999204,-0.1015,0.55426,-0.1442
-0.0663835,0.040673,-0.987811,-0.10528,0.55118,-0.14854
-0.0542107,0.0658497,-0.98839,-0.1078,0.54782,-0.14644
-0.0296815,0.122266,-0.997068,-0.1099,0.54642,-0.14798
-0.0324953,0.11412,-1.00458,-0.112,0.5474,-0.14532
-0.0631415,0.0344881,-1.00543,-0.1148,0.54012,-0.147
-0.084184,-0.0648007,-0.996951,-0.1113,0.5404,-0.13846
-0.0189155,-0.0277859,-0.964353,-0.11396,0.53536,-0.14042
0.061829,0.0453698,-0.959548,-0.11228,0.53522,-0.14224
0.110398,0.134439,-0.972504,-0.11536,0.53522,-0.14448
0.0853794,0.0918643,-0.975928,-0.1176,0.5355,-0.14644
0.0267173,0.040826,-0.969479,-0.11956,0.5313,-0.14882
-0.0583703,0.0450855,-0.970957,-0.11844,0.53102,-0.1442
-0.0534766,0.0945749,-0.963748,-0.1169,0.52794,-0.1456
-0.051091,0.118768,-0.972921,-0.11802,0.5271,-0.14392
-0.09495,0.0744722,-0.992801,-0.11942,0.52864,-0.14238
-0.0974579,0.0462364,-0.997874,-0.11886,0.52318,-0.14182
-0.0970909,0.0666931,-0.990168,-0.1232,0.52192,-0.13888
-0.0936654,0.0883757,-0.986077,-0.12054,0.52234,-0.14098
-0.0293145,0.126064,-0.990954,-0.12824,0.5201,-0.14224
0.00169877,0.1126,-0.992631,-0.12194,0.5208,-0.1379
0.0157067,0.0944751,-1.00612,-0.12152,0.52164,-0.14224
-0.00943419,0.0564935,-1.02171,-0.12348,0.51604,-0.13944
-0.0403862,0.0498074,-1.02083,-0.1239,0.51744,-0.1463
-0.047115,0.053235,-1.01195,-0.12418,0.51506,-0.14462
-0.0404474,0.0652417,-1.00793,-0.13104,0.51506,-0.14434
-0.0233198,0.0675747,-1.00553,-0.12488,0.51758,-0.14224
-0.00876132,0.0640271,-1.02391,-0.12978,0.51674,-0.14672
-0.0109023,0.0718048,-1.00911,-0.1274,0.5131,-0.14756
-0.0192214,0.0803767,-0.991968,-0.1281,0.51128,-0.14672
0.00946737,0.12479,-0.97975,-0.12838,0.50596,-0.14784
0.0147892,0.165277,-0.976395,-0.13062,0.50876,-0.15176
0.0132599,0.166685,-0.979753,-0.13034,0.50722,-0.15344
0.0245764,0.147886,-1.00082,-0.13034,0.5047,-0.15162
-0.02124,0.0112279,-1.07879,-0.13468,0.5061,-0.15358
-0.0411815,-0.0254046,-1.07997,-0.13244,0.5047,-0.15526
-0.0127374,-0.018658,-1.09502,-0.12978,0.50274,-0.1575
-0.0117587,0.0464482,-1.08163,-0.13062,0.50414,-0.15694
-0.00405122,0.0809329,-1.03407,-0.1316,0.5033,-0.1568
0.0440285,0.137051,-0.993415,-0.13244,0.50232,-0.161
0.0560178,0.0916096,-1.01351,-0.13048,0.5005,-0.16758
0.0943714,-0.0229103,-1.02898,-0.13314,0.50036,-0.1708
0.0283689,-0.0336502,-1.0532,-0.13272,0.4977,-0.16716
0.00757109,-0.000705924,-1.03339,-0.13356,0.49644,-0.1687
0.0367492,0.065757,-0.989006,-0.1316,0.49518,-0.16898
0.053938,0.142505,-0.938599,-0.1295,0.49658,-0.16884
0.123672,0.196732,-0.902097,-0.13356,0.4977,-0.17206
0.114007,0.168555,-0.912163,-0.1344,0.49266,-0.16996
0.107645,0.111287,-0.957766,-0.13468,0.49112,-0.17108
0.0894778,0.0744714,-0.98065,-0.13384,0.48902,-0.16912
0.0614008,0.0849967,-0.98748,-0.13342,0.48958,-0.17318
0.0615231,0.105943,-0.959842,-0.13244,0.49336,-0.17486
0.0826879,0.153601,-0.90242,-0.13398,0.49406,-0.17066
0.140494,0.240346,-0.867286,-0.13678,0.49448,-0.17164
0.138781,0.222094,-0.884464,-0.13706,0.4914,-0.1764
0.125935,0.128503,-0.916116,-0.13524,0.49322,-0.17206
0.128749,0.0325911,-0.946221,-0.13496,0.49014,-0.17752
0.104526,0.0457513,-0.967001,-0.13384,0.48636,-0.1792
0.044579,0.0219677,-0.96892,-0.13678,0.4837,-0.17584
0.0827491,0.0639346,-0.931294,-0.13622,0.48426,-0.17458
0.0947996,0.116489,-0.890782,-0.13636,0.4802,-0.17514
0.106911,0.18019,-0.90719,-0.1372,0.48468,-0.17542
0.071188,0.107478,-0.947212,-0.1379,0.48034,-0.1701
0.0929034,0.0477074,-0.96593,-0.1379,0.47628,-0.17094
0.111499,-0.00116185,-0.978523,-0.13972,0.47698,-0.17472
0.0828715,-0.0198517,-0.983828,-0.14,0.47488,-0.175
-0.0509687,0.0450266,-1.0666,-0.1414,0.47166,-0.16744
-0.00821079,0.110024,-1.06695,-0.1442,0.47124,-0.1673
-0.0335352,0.145355,-1.06895,-0.14672,0.46844,-0.16702
-0.026623,0.0980748,-1.08182,-0.1449,0.4662,-0.16226
-0.015857,0.0824602,-1.08503,-0.14616,0.47012,-0.1659
0.0159514,0.0791633,-1.09466,-0.14532,0.47138,-0.16842
0.0378503,0.0896438,-1.05815,-0.14098,0.4697,-0.1673
0.0778555,0.0458651,-1.00752,-0.14644,0.47012,-0.16632
0.0871534,0.128429,-0.907206,-0.14518,0.47138,-0.16702
0.0299593,0.0211667,-0.972548,-0.1435,0.46494,-0.16674
0.0077546,-0.000705864,-0.986309,-0.14868,0.46284,-0.1736
-0.0225246,-4.20639e-05,-1.03098,-0.1505,0.46018,-0.17514
-0.0468091,0.0918209,-1.04649,-0.14882,0.46354,-0.16226
-0.0833276,0.198747,-1.01855,-0.15106,0.45836,-0.16898
-0.0862638,0.264648,-1.0063,-0.14868,0.45458,-0.16702
-0.0559234,0.239118,-1.01954,-0.15036,0.45164,-0.16198
0.0109354,0.157558,-1.04706,-0.15064,0.45248,-0.16324
0.0294088,0.0626309,-1.06156,-0.1491,0.45136,-0.16408
0.0318556,0.0528934,-1.04323,-0.14672,0.45094,-0.1652
0.0300817,0.0716345,-1.01161,-0.14798,0.44954,-0.17304
0.0256163,0.103665,-0.989764,-0.14826,0.44366,-0.1659
0.0152174,0.136123,-0.981231,-0.15078,0.44562,-0.16436
0.0276349,0.142007,-0.976678,-0.14924,0.4459,-0.16772
0.0475763,0.14526,-0.974287,-0.15176,0.44268,-0.16632
0.0555284,0.140669,-0.985987,-0.15134,0.44478,-0.16618
0.060422,0.128911,-0.982579,-0.15302,0.4452,-0.16842
0.0681906,0.125177,-0.977587,-0.15358,0.44002,-0.1722
0.0512465,0.0982228,-0.968497,-0.14966,0.44142,-0.16968
0.0269008,0.0589553,-0.964341,-0.1554,0.44002,-0.16996
0.00903918,0.0883481,-0.98269,-0.15652,0.43862,-0.16744
-0.00423473,0.105371,-0.992188,-0.15526,0.4333,-0.1757
0.0124035,0.128772,-0.994064,-0.15288,0.43624,-0.16856
0.0103849,0.138571,-0.996563,-0.15288,0.43022,-0.16926
0.0108131,0.141144,-0.991551,-0.15722,0.43568,-0.16478
0.0139328,0.128467,-0.981596,-0.15442,0.4298,-0.17262
0.0356482,0.122655,-0.973158,-0.15358,0.4284,-0.16716
0.030204,0.106852,-0.978098,-0.15316,0.42952,-0.1687
0.0295923,0.109485,-0.979746,-0.15456,0.42658,-0.1659
0.0357093,0.106792,-0.987956,-0.1554,0.42602,-0.16968
0.0224354,0.109238,-0.989937,-0.15246,0.43064,-0.17066
0.0498396,0.11139,-0.994597,-0.1547,0.42252,-0.16128
0.0489832,0.0898312,-1.00408,-0.15582,0.42112,-0.16338
0.0588316,0.138893,-1.00446,-0.15526,0.42504,-0.16576
0.0385232,0.166877,-0.991867,-0.15554,0.42266,-0.16562
0.0448848,0.144401,-0.97428,-0.15736,0.42252,-0.16688
0.0546109,0.0923441,-0.966551,-0.15442,0.41566,-0.16772
0.0512465,0.0742138,-0.970886,-0.1554,0.41804,-0.16898
0.0479433,0.106,-0.992025,-0.15442,0.41846,-0.16478
0.0385843,0.114878,-1.01327,-0.15652,0.41608,-0.16562
0.0191322,0.110645,-1.01983,-0.15484,0.4151,-0.1666
0.020478,0.0993152,-1.00039,-0.1582,0.40964,-0.16842
0.0271455,0.0886603,-0.976381,-0.15904,0.40796,-0.16618
0.0272067,0.100114,-0.979864,-0.15666,0.40782,-0.16408
0.0119142,0.0980874,-1.00098,-0.15638,0.4025,-0.16912
-0.0357373,0.0854548,-1.02054,-0.15722,0.40208,-0.16324
-0.0485219,0.0972714,-1.03756,-0.15568,0.39858,-0.1624
0.0516135,0.101163,-1.04498,-0.15862,0.40138,-0.1645
0.027696,0.110158,-0.995943,-0.16184,0.39564,-0.16842
0.0151562,0.106112,-0.956597,-0.16016,0.39004,-0.1708
0.0415205,0.134845,-0.919919,-0.15596,0.3906,-0.16996
0.0388902,0.146359,-0.898266,-0.1582,0.38668,-0.175
0.00702056,0.137039,-0.894573,-0.15722,0.38178,-0.1743
-0.0729287,0.133277,-0.933607,-0.16016,0.37786,-0.17206
-0.098192,0.165056,-0.951507,-0.16058,0.37814,-0.1694
-0.103758,0.164748,-0.983407,-0.16184,0.37436,-0.16954
-0.0652213,0.131748,-1.00357,-0.16072,0.37142,-0.17206
-0.0368384,0.108973,-1.02554,-0.16198,0.36834,-0.16912
-0.00509111,0.152163,-1.00416,-0.161,0.36918,-0.17108
0.0321615,0.117877,-0.980425,-0.16016,0.36876,-0.1778
0.0333237,0.111998,-0.966367,-0.161,0.36652,-0.16632
0.0220684,0.118119,-0.966213,-0.1603,0.36554,-0.16702
-0.0116975,0.108185,-1.00348,-0.16016,0.36372,-0.16674
-0.0203836,0.103344,-1.03231,-0.15848,0.36372,-0.17066
-0.0207507,0.0984442,-1.04099,-0.15764,0.3654,-0.1666
-0.0217905,0.0943403,-1.03164,-0.15554,0.36274,-0.16408
-0.0216682,0.121228,-1.03665,-0.15568,0.36064,-0.17052
-0.0124927,0.160735,-1.03171,-0.15554,0.36176,-0.17332
0.00120941,0.146408,-1.02698,-0.1547,0.35714,-0.17542
0.0204168,0.162829,-0.997015,-0.15484,0.3549,-0.17696
0.00310568,0.18328,-0.966761,-0.1533,0.3528,-0.18018
-0.00337835,0.181072,-0.967355,-0.1533,0.35434,-0.17808
0.0142998,0.136919,-0.990522,-0.15106,0.35448,-0.17178
0.027329,0.12841,-1.01336,-0.15596,0.3486,-0.1757
0.0231083,0.113219,-1.02008,-0.1568,0.34552,-0.1764
0.00916152,0.119952,-1.01607,-0.15806,0.35294,-0.17402
0.0158902,0.134347,-1.00061,-0.15358,0.34692,-0.1764
0.0159514,0.133061,-0.970289,-0.1498,0.3458,-0.17542
0.0259833,0.134657,-0.953809,-0.15246,0.35084,-0.17668
0.0333237,0.12143,-0.957622,-0.15232,0.34818,-0.17836
0.0267785,0.118978,-0.968854,-0.15176,0.34692,-0.17584
0.0337519,0.144949,-0.977306,-0.15288,0.34496,-0.1771
0.0110578,0.139613,-0.994547,-0.15442,0.34454,-0.17346
-0.015123,0.141993,-1.02009,-0.15386,0.3472,-0.17486
-0.0208118,0.145666,-1.03909,-0.1491,0.34412,-0.17724
-0.0123092,0.126008,-1.0179,-0.1533,0.34412,-0.17934
0.014361,0.097047,-0.977812,-0.15246,0.33964,-0.17668
0.0726561,0.0725672,-0.951441,-0.1505,0.33726,-0.17808
0.0655603,0.0752597,-0.964688,-0.15246,0.33208,-0.17822
0.00500195,0.133915,-1.0056,-0.14784,0.33754,-0.17864
-0.0173863,0.196625,-1.03658,-0.14896,0.33586,-0.17444
-0.0174475,0.193685,-1.03866,-0.147,0.33642,-0.17514
-0.00135974,0.146407,-1.01481,-0.1498,0.33614,-0.17864
0.00806045,0.120258,-1.00292,-0.1533,0.33908,-0.17472
-0.017998,0.123924,-1.00713,-0.1484,0.33656,-0.17178
-0.0295591,0.124839,-1.01975,-0.1477,0.3339,-0.1743
-0.0214847,0.110142,-1.01764,-0.1463,0.33166,-0.17304
0.0108131,0.103661,-0.997365,-0.1456,0.33124,-0.1757
0.0404194,0.117022,-0.967853,-0.14602,0.32872,-0.1694
0.0519194,0.102143,-0.956759,-0.14672,0.32648,-0.1715
0.0301429,0.112119,-0.988918,-0.14784,0.32578,-0.17654
-0.000136336,0.14163,-1.02081,-0.14742,0.32564,-0.17472
-0.00521345,0.152408,-1.02666,-0.14518,0.32256,-0.17332
-0.030232,0.134577,-1.02219,-0.14266,0.32312,-0.17528
-0.056107,0.112826,-1.01699,-0.14644,0.32228,-0.17514
0.00439025,0.12191,-0.992392,-0.14504,0.31696,-0.17248
0.00818279,0.0874292,-0.975595,-0.14378,0.32032,-0.1743
0.0360152,0.0859071,-0.972982,-0.14448,0.31612,-0.16968
0.0584034,0.0872006,-0.970169,-0.14112,0.31528,-0.17556
0.0495338,0.103122,-0.984021,-0.14056,0.31514,-0.17038
-0.0326788,0.112466,-1.00311,-0.13832,0.31934,-0.17346
-0.0682186,0.143262,-1.00986,-0.13874,0.31598,-0.17206
-0.0840005,0.1454,-1.02021,-0.14196,0.31682,-0.17444
-0.0419155,0.12851,-1.01177,-0.14042,0.3101,-0.17108
-0.00766026,0.0833204,-0.993833,-0.1379,0.308,-0.17122
0.0065312,0.0618272,-0.979325,-0.1379,0.31038,-0.16786
0.00977322,0.0558873,-0.973832,-0.13832,0.30366,-0.17108
0.00610301,0.0683806,-0.981279,-0.13832,0.30646,-0.17178
-0.0167134,0.093607,-0.989772,-0.1393,0.30296,-0.17052
-0.0264395,0.0913989,-0.984426,-0.13566,0.3038,-0.16814
-0.0392852,0.0829425,-0.976322,-0.13496,0.30044,-0.16716
-0.0125539,0.0867486,-0.972421,-0.13524,0.29526,-0.16982
-0.0305379,0.0994822,-0.987899,-0.13496,0.29736,-0.1645
-0.0112693,0.111248,-0.996876,-0.1379,0.29288,-0.16618
-0.0166523,0.113512,-1.0031,-0.13454,0.2905,-0.1736
-0.0179368,0.0846032,-0.994417,-0.13132,0.2849,-0.17556
-0.00741558,0.0751746,-0.98173,-0.1337,0.28938,-0.1743
-0.00784377,0.0756032,-0.981668,-0.13566,0.28462,-0.1729
-0.0115751,0.0940986,-0.990703,-0.13216,0.28616,-0.17528
-0.0383676,0.113444,-1.0045,-0.1344,0.27594,-0.1708
-0.0437506,0.11234,-1.00143,-0.13398,0.28266,-0.17486
-0.0198943,0.093116,-0.981387,-0.12838,0.28042,-0.1729
0.00316685,0.0988195,-0.973256,-0.12894,0.27832,-0.17066
-0.000931547,0.0673983,-0.969277,-0.12894,0.2751,-0.17836
0.0197439,0.0561356,-0.97655,-0.12866,0.27468,-0.17668
0.00457376,0.0297943,-0.968809,-0.1232,0.27426,-0.17388
-0.0495618,-0.0398617,-0.918539,-0.12796,0.27118,-0.17556
-0.00876132,-0.00389614,-0.910146,-0.12334,0.27482,-0.17472
0.0522864,0.0540638,-0.948637,-0.12152,0.26768,-0.17206
0.0105073,0.0958208,-0.984221,-0.12404,0.2639,-0.16394
-0.051091,0.125138,-0.983803,-0.12306,0.26432,-0.16408
-0.0756814,0.148649,-0.994369,-0.12082,0.2653,-0.16548
-0.0787399,0.174556,-1.00591,-0.12096,0.25704,-0.17094
-0.085958,0.143195,-1.02363,-0.1211,0.25858,-0.17052
-0.0803303,0.147912,-1.03104,-0.1176,0.25956,-0.1729
-0.0603889,0.141121,-1.02737,-0.11718,0.2534,-0.16954
-0.0498676,0.126486,-1.02666,-0.11872,0.25424,-0.16856
-0.0480325,0.124649,-1.03003,-0.11788,0.2471,-0.16674
-0.0386123,0.0973359,-1.00793,-0.1127,0.24696,-0.16744
-0.0332905,0.089498,-1.00513,-0.11564,0.24472,-0.16842
-0.0142055,0.0874831,-1.00268,-0.11424,0.24248,-0.1666
-0.00160442,0.0895696,-0.992259,-0.1155,0.24248,-0.1708
0.0533263,0.0889751,-0.977797,-0.11536,0.24108,-0.16828
0.0192546,0.0617702,-1.00051,-0.11368,0.24192,-0.1687
0.00475727,0.076036,-1.02994,-0.11284,0.24038,-0.17192
0.00854982,0.0841832,-1.01943,-0.11396,0.23814,-0.17374
0.00359504,0.106598,-1.00425,-0.11046,0.23366,-0.17346
0.0110578,0.148126,-1.03319,-0.10696,0.23856,-0.17626
-0.0077826,0.0890164,-1.02141,-0.11228,0.2366,-0.1785
-0.0111469,0.0847892,-1.01345,-0.11018,0.2373,-0.17542
-0.0230751,0.0816004,-1.00706,-0.10766,0.23282,-0.1722
-0.0282746,0.0594884,-1.01292,-0.1078,0.231,-0.16618
-0.029131,0.0514035,-1.01286,-0.10864,0.23324,-0.17262
-0.0343916,0.0622426,-1.00997,-0.11186,0.231,-0.17038
-0.0375113,0.0709999,-0.993754,-0.11326,0.2282,-0.16786
-0.0462586,0.0458244,-0.978205,-0.11214,0.22876,-0.16394
-0.0580644,0.0129307,-0.97182,-0.11102,0.22722,-0.17052
-0.0780058,0.000307243,-0.972134,-0.11578,0.22358,-0.15974
-0.0786787,0.0182525,-0.975125,-0.11018,0.22176,-0.16828
-0.053232,0.0517631,-0.97415,-0.10836,0.22638,-0.16324
-0.0166523,0.0594922,-0.974004,-0.10878,0.2247,-0.16296
0.012587,0.060298,-0.967847,-0.1099,0.2275,-0.16576
0.023353,0.0622615,-0.964453,-0.10822,0.22344,-0.16296
0.0180923,0.0624435,-0.965783,-0.10514,0.21952,-0.16884
0.0170525,0.0690579,-0.969081,-0.10332,0.2205,-0.16954
0.0107519,0.0682596,-0.97102,-0.10332,0.22512,-0.17808
-0.00105389,0.0656833,-0.974229,-0.10122,0.22582,-0.17108
-0.023381,0.0634099,-0.976491,-0.10346,0.22078,-0.17164
-0.0479713,0.0626668,-0.973979,-0.10136,0.21924,-0.16912
-0.0614899,0.0591101,-0.973392,-0.10094,0.21518,-0.16926
-0.0584314,0.0663383,-0.974561,-0.10066,0.21812,-0.16758
-0.0435671,0.0798175,-0.972826,-0.09772,0.21406,-0.16338
-0.0322506,0.0664693,-0.975121,-0.0973,0.20986,-0.16352
-0.0171416,0.0540411,-0.975593,-0.09702,0.21322,-0.16422
-0.0134714,0.04902,-0.982574,-0.09534,0.21168,-0.16604
-0.0246044,0.0345007,-0.968912,-0.09674,0.2135,-0.16814
-0.0370831,0.0521971,-0.98043,-0.09338,0.21392,-0.16282
-0.0512134,0.163601,-1.06474,-0.0924,0.20692,-0.16898
-0.0170804,0.145667,-1.11131,-0.0917,0.20538,-0.168
0.0251269,0.108871,-1.0616,-0.0924,0.2072,-0.16912
0.0486162,0.0822364,-1.00774,-0.09212,0.20888,-0.17164
0.0634805,0.0666232,-0.98003,-0.09184,0.20398,-0.17374
0.0536322,0.0187858,-0.931772,-0.08806,0.20076,-0.17234
0.0273902,0.0579142,-0.938541,-0.08918,0.2037,-0.1715
-0.0290698,0.103158,-0.990959,-0.09352,0.19894,-0.1652
-0.0665059,0.0757677,-0.99667,-0.08932,0.19936,-0.16534
-0.117094,0.0761799,-1.0175,-0.0882,0.1974,-0.1582
-0.149636,0.0996882,-1.03489,-0.0882,0.19852,-0.15876
-0.150859,0.0812523,-1.03789,-0.08848,0.19446,-0.1624
-0.099293,0.0457458,-1.01707,-0.08624,0.19796,-0.15666
-0.0556788,0.0442289,-0.999456,-0.08694,0.19362,-0.15932
-0.0301708,0.0455234,-0.995613,-0.08274,0.19278,-0.15904
-0.02699,0.0272728,-0.996236,-0.08386,0.1925,-0.15666
-0.0380006,-0.0113779,-1.00856,-0.08134,0.18998,-0.1582
-0.0379394,0.0176534,-0.991806,-0.08092,0.18438,-0.15442
-0.0529873,0.00742013,-0.980394,-0.07658,0.18522,-0.15848
-0.0641202,0.022912,-0.970579,-0.07924,0.18592,-0.154
-0.083817,0.024498,-0.982752,-0.07406,0.18312,-0.15792
-0.0934207,0.026761,-0.999784,-0.07392,0.182,-0.16198
-0.0905457,0.0322742,-1.01159,-0.07252,0.18438,-0.15512
-0.0892,0.0559774,-1.01092,-0.07126,0.18396,-0.15526
-0.0652213,0.0641311,-1.00279,-0.07168,0.1834,-0.15694
-0.0348809,0.0240853,-0.998049,-0.0756,0.17682,-0.1505
-0.0266841,0.0163709,-0.993365,-0.0714,0.18284,-0.1561
-0.039591,0.0173466,-0.971075,-0.07126,0.18004,-0.16254
-0.0693809,0.0595975,-0.952216,-0.06734,0.17738,-0.154
-0.0973356,0.0932131,-0.964851,-0.06804,0.18116,-0.15554
-0.106817,0.105337,-0.987322,-0.0658,0.1785,-0.15764
-0.112322,0.103375,-1.00968,-0.06496,0.17738,-0.16198
-0.0879766,0.0865402,-1.01654,-0.06748,0.1771,-0.16506
-0.0460751,0.0844103,-1.00993,-0.0644,0.17738,-0.1596
-0.032373,0.0650606,-1.00447,-0.05852,0.17346,-0.168
-0.0340857,0.0472371,-1.00648,-0.05614,0.17626,-0.16884
-0.0444846,0.0534809,-1.00279,-0.05586,0.1708,-0.16968
-0.0657718,0.110005,-1.01006,-0.05334,0.1666,-0.17038
-0.0636309,0.148775,-0.999599,-0.0574,0.16968,-0.17052
-0.0701761,0.150488,-0.988759,-0.05068,0.16814,-0.16786
-0.0703596,0.105533,-0.99433,-0.05418,0.17024,-0.16534
-0.060083,0.0733812,-0.997238,-0.05068,0.16702,-0.17136
-0.0476655,0.0613807,-1.00033,-0.04718,0.16898,-0.1736
-0.0466256,0.0463755,-0.993366,-0.04816,0.1659,-0.1708
-0.0491947,0.0629114,-0.98871,-0.04494,0.1673,-0.1694
-0.044974,0.115769,-1.00082,-0.04816,0.16604,-0.16982
-0.0475431,0.096353,-0.992255,-0.04662,0.1631,-0.1673
-0.0669341,0.071174,-0.979611,-0.04872,0.16296,-0.1729
-0.0906069,0.111222,-0.962359,-0.04746,0.15848,-0.1785
-0.119357,0.128974,-0.96191,-0.0448,0.16352,-0.17346
-0.103086,0.119609,-0.976691,-0.04522,0.15848,-0.17388
-0.0734181,0.110493,-0.992059,-0.0399,0.15652,-0.17486
-0.0491947,0.090534,-0.997142,-0.042,0.15778,-0.1757
-0.0556176,0.0864895,-0.997064,-0.03724,0.15736,-0.17388
-0.0656495,0.109638,-0.992325,-0.03934,0.15848,-0.17374
-0.0822266,0.129231,-0.978825,-0.03514,0.15456,-0.17416
-0.105165,0.137064,-0.972586,-0.03668,0.15736,-0.18186
-0.105838,0.139085,-0.976619,-0.03234,0.1568,-0.17682
-0.0906681,0.134986,-0.979963,-0.035,0.1589,-0.17542
-0.0611229,0.146143,-0.993615,-0.03444,0.15932,-0.17738
-0.0554341,0.1538,-0.995158,-0.02968,0.15666,-0.1827
-0.0628968,0.1745,-0.99012,-0.03094,0.1624,-0.1813
-0.0645484,0.177071,-0.984674,-0.03164,0.1589,-0.18564
-0.0786787,0.175964,-0.987448,-0.03136,0.16156,-0.1855
-0.0786787,0.18803,-0.997962,-0.03164,0.15974,-0.1883
-0.0743356,0.200158,-1.00439,-0.03024,0.15946,-0.19082
-0.0600218,0.204512,-1.00064,-0.0294,0.16352,-0.19236
-0.0330458,0.187861,-0.973447,-0.02072,0.15694,-0.19628
-0.00814962,0.199016,-0.945695,-0.02086,0.1617,-0.1953
-0.00252197,0.194731,-0.934584,-0.01624,0.15848,-0.19894
-0.00129857,0.196446,-0.934648,-0.01764,0.15876,-0.20776
-0.0109634,0.19234,-0.956449,-0.01162,0.16338,-0.20846
-0.0351256,0.193434,-0.987503,-0.0161,0.16016,-0.20692
-0.0528649,0.210394,-1.00017,-0.01008,0.161,-0.2149
-0.0525591,0.228829,-0.980907,-0.0112,0.16212,-0.2156
-0.0415485,0.22969,-0.968097,-0.00896,0.1617,-0.22022
-0.00802728,0.248749,-0.934315,-0.00644,0.1673,-0.21994
0.00414557,0.260268,-0.943211,-0.00448,0.16814,-0.22288
0.026962,0.226222,-0.951656,-0.00042,0.168,-0.22428
0.0437838,0.250665,-0.956894,0.00322,0.1666,-0.2275
0.0563848,0.307017,-0.945669,0.00574,0.16856,-0.23646
0.0376056,0.336103,-0.94066,0.01008,0.17178,-0.23492
0.017236,0.351041,-0.944882,0.01092,0.17024,-0.23912
-0.0117587,0.342211,-0.96174,0.01064,0.1687,-0.23884
-0.0425272,0.350347,-0.972537,0.01428,0.17234,-0.24514
-0.0482772,0.364493,-0.972519,0.01274,0.17304,-0.2443
-0.00967887,0.361811,-0.941321,0.0147,0.1743,-0.25102
0.0444567,0.359624,-0.901485,0.01778,0.17472,-0.24556
0.0797518,0.342241,-0.888989,0.0266,0.17262,-0.24948
0.0647651,0.343339,-0.89494,0.02226,0.1743,-0.24696
0.0128929,0.381479,-0.915823,0.02618,0.1736,-0.25214
-0.00478526,0.389497,-0.91932,0.02996,0.17836,-0.25102
-0.0269288,0.452758,-0.932026,0.03276,0.1792,-0.26292
-0.0414261,0.388443,-0.953335,0.02898,0.17864,-0.26138
-0.00796611,0.39807,-0.953303,0.03374,0.1813,-0.26194
-0.00239963,0.429492,-0.949522,0.03752,0.1827,-0.27006
0.0528981,0.437472,-0.92436,0.03878,0.18564,-0.27076
0.0914964,0.434361,-0.901722,0.04032,0.1827,-0.2653
0.106544,0.455864,-0.885313,0.04578,0.18564,-0.26978
0.0974911,0.456228,-0.875995,0.04228,0.18242,-0.27552
0.0623183,0.460198,-0.888371,0.04662,0.18788,-0.27412
0.021579,0.482111,-0.90996,0.04998,0.18844,-0.28112
0.0210285,0.481499,-0.911181,0.04928,0.19068,-0.2835
0.049962,0.488306,-0.914989,0.05208,0.1911,-0.28952
0.101957,0.473318,-0.902111,0.0574,0.18886,-0.28994
0.175789,0.469422,-0.882872,0.06342,0.19124,-0.2912
0.185148,0.449152,-0.871223,0.0651,0.19488,-0.28014
0.152422,0.475662,-0.871312,0.0679,0.19278,-0.29078
0.11205,0.49194,-0.871138,0.07084,0.19586,-0.29484
0.111866,0.493533,-0.854813,0.07028,0.19544,-0.29106
0.145632,0.510081,-0.856614,0.07196,0.20076,-0.2933
0.200196,0.511875,-0.86086,0.0791,0.19824,-0.28924
0.252618,0.527387,-0.866564,0.07938,0.20006,-0.3003
0.240996,0.523709,-0.866411,0.08092,0.20174,-0.29722
0.207291,0.515307,-0.873167,0.08036,0.19894,-0.29022
0.175911,0.490063,-0.872413,0.08512,0.19796,-0.2926
0.19414,0.486088,-0.854856,0.08442,0.19712,-0.29862
0.214938,0.47752,-0.836511,0.08344,0.19782,-0.29666
0.230658,0.477525,-0.823959,0.09478,0.19768,-0.30324
0.237326,0.481202,-0.814684,0.0952,0.1995,-0.30296
0.234634,0.508824,-0.805501,0.09576,0.20188,-0.30282
0.260081,0.507791,-0.796644,0.09702,0.20328,-0.30338
0.3259,0.534455,-0.80006,0.10374,0.20132,-0.30156
0.369514,0.509909,-0.803913,0.10668,0.20076,-0.30072
0.397286,0.481683,-0.801365,0.11284,0.19964,-0.30422
0.387315,0.47923,-0.805313,0.1099,0.20412,-0.308
0.364193,0.481917,-0.807083,0.11606,0.20566,-0.30632
0.350246,0.498939,-0.804413,0.1225,0.20216,-0.30394
0.365171,0.490921,-0.77199,0.12278,0.20048,-0.30366
0.385908,0.51708,-0.754495,0.12964,0.20384,-0.30534
0.398815,0.523454,-0.747437,0.13174,0.2016,-0.30394
0.438575,0.514219,-0.73697,0.13174,0.20636,-0.30716
0.452155,0.481762,-0.740498,0.14028,0.20678,-0.30422
0.468916,0.442386,-0.745687,0.14406,0.20258,-0.30114
0.457722,0.425539,-0.770604,0.14462,0.20258,-0.30422
0.450809,0.429273,-0.772419,0.14518,0.20384,-0.30198
0.488062,0.465544,-0.73901,0.14588,0.2065,-0.30002
0.52611,0.498323,-0.716364,0.1526,0.20888,-0.30282
0.55174,0.519585,-0.707749,0.1526,0.2093,-0.30478
0.507575,0.519141,-0.708056,0.1568,0.20342,-0.30856
0.503232,0.512096,-0.696123,0.16352,0.20272,-0.3024
0.496748,0.521955,-0.681736,0.16408,0.20538,-0.30352
0.545011,0.480629,-0.660415,0.1666,0.2016,-0.30184
0.611626,0.422466,-0.645628,0.1743,0.20244,-0.30226
0.694144,0.411407,-0.624702,0.17556,0.20426,-0.30422
0.652243,0.393815,-0.653448,0.17598,0.2065,-0.30002
0.654016,0.427686,-0.655832,0.18186,0.20748,-0.3017
0.668514,0.451148,-0.632084,0.1883,0.20258,-0.29918
0.657748,0.470744,-0.6304,0.1925,0.20524,-0.29106
0.657442,0.440794,-0.614631,0.19124,0.20538,-0.2912
0.650897,0.445385,-0.598104,0.1939,0.2023,-0.2919
0.66411,0.454025,-0.565429,0.19992,0.20272,-0.28868
0.665883,0.454883,-0.550332,0.2002,0.20132,-0.29022
0.668697,0.435408,-0.532735,0.20636,0.19964,-0.28938
0.672857,0.413421,-0.5429,0.2058,0.19894,-0.28938
0.682889,0.406994,-0.551793,0.20846,0.20244,-0.28434
0.734639,0.375468,-0.549923,0.2121,0.20286,-0.2849
0.776418,0.393611,-0.532304,0.21308,0.19754,-0.2814
0.776234,0.379769,-0.508339,0.21126,0.19866,-0.27706
0.76449,0.376152,-0.486175,0.21308,0.19586,-0.2786
0.883832,0.471308,-0.486852,0.21742,0.19782,-0.27734
0.82566,0.431539,-0.421096,0.21686,0.19138,-0.27566
0.79642,0.339843,-0.474591,0.21868,0.19432,-0.27272
0.782779,0.301559,-0.505497,0.21686,0.19264,-0.27328
0.79275,0.326428,-0.465107,0.21742,0.1911,-0.27076
0.80792,0.328087,-0.470467,0.21686,0.18746,-0.27104
0.813242,0.369614,-0.4783,0.21686,0.18928,-0.2765
0.787,0.378732,-0.463247,0.21826,0.19082,-0.27146
0.793607,0.347375,-0.444685,0.21812,0.1904,-0.27258
0.789631,0.354233,-0.431222,0.21616,0.19348,-0.26978
0.809083,0.341194,-0.428281,0.21896,0.1904,-0.26824
0.828045,0.328522,-0.430414,0.2219,0.18844,-0.26824
0.853003,0.335635,-0.40841,0.22666,0.18648,-0.27314
0.879245,0.346546,-0.411048,0.22652,0.19068,-0.26516
0.868479,0.358669,-0.401906,0.2275,0.189,-0.26642
0.839239,0.359762,-0.407268,0.22764,0.18704,-0.26642
0.796359,0.321407,-0.450505,0.22806,0.18774,-0.2695
0.791527,0.317179,-0.451226,0.22834,0.18634,-0.26558
0.822479,0.318721,-0.422269,0.23366,0.18816,-0.26348
0.866705,0.34354,-0.360268,0.23226,0.1876,-0.25998
0.898207,0.362047,-0.311378,0.2366,0.18704,-0.26544
0.917048,0.348702,-0.289789,0.24416,0.18466,-0.26166
0.937846,0.299956,-0.290404,0.24262,0.17878,-0.26068
0.937601,0.267495,-0.313704,0.24682,0.1855,-0.25998
0.932707,0.210227,-0.347877,0.24388,0.18704,-0.26236
0.924205,0.246299,-0.348581,0.2499,0.18522,-0.25914
0.935276,0.312756,-0.319375,0.25018,0.18788,-0.25662
0.911053,0.360643,-0.289464,0.25648,0.18928,-0.25928
0.895516,0.330504,-0.263993,0.25578,0.18522,-0.25368
0.891601,0.295714,-0.233785,0.25354,0.18788,-0.25732
0.922492,0.308893,-0.206966,0.2562,0.18886,-0.25368
0.93754,0.284093,-0.20316,0.25592,0.19082,-0.25214
0.974548,0.279879,-0.197026,0.2576,0.18802,-0.2548
0.978279,0.277307,-0.206635,0.259,0.1897,-0.24948
0.974181,0.306276,-0.203318,0.26446,0.18844,-0.25088
0.955218,0.315947,-0.192503,0.26754,0.18634,-0.24794
0.938824,0.287645,-0.175344,0.27034,0.1883,-0.24738
0.919556,0.287088,-0.159518,0.26782,0.19012,-0.25144
0.929771,0.25463,-0.135156,0.2723,0.18452,-0.24738
0.930566,0.260449,-0.113025,0.27356,0.18396,-0.24332
0.92084,0.264304,-0.104805,0.27174,0.18312,-0.24248
0.904875,0.254009,-0.0996885,0.27398,0.18676,-0.24178
0.894598,0.246044,-0.0962991,0.27776,0.19054,-0.23464
0.911114,0.261239,-0.0771438,0.27916,0.189,-0.24108
0.921636,0.281515,-0.0629846,0.28238,0.18438,-0.23884
0.926223,0.27631,-0.0493028,0.28574,0.18774,-0.23968
0.891356,0.267969,-0.0339239,0.28686,0.1876,-0.23912
0.862851,0.252036,-0.0285295,0.29232,0.18816,-0.23814
0.841625,0.269178,-0.023088,0.29498,0.19376,-0.23772
0.97626,0.322017,0.00320947,0.29904,0.19362,-0.23506
0.967697,0.292065,0.0289675,0.301,0.19474,-0.22694
0.967391,0.299169,0.0262183,0.30786,0.1967,-0.23408
0.968431,0.320729,0.0365518,0.31206,0.19418,-0.22862
0.966473,0.30511,0.0367379,0.31416,0.19936,-0.224
0.977178,0.337942,0.045335,0.31402,0.203,-0.2261
0.982255,0.351908,0.0530272,0.31822,0.20272,-0.22134
0.988005,0.35289,0.0655452,0.32004,0.2044,-0.21952
0.979869,0.320977,0.0839038,0.32788,0.20496,-0.2128
0.975771,0.30597,0.107268,0.32998,0.20454,-0.2149
0.976444,0.277246,0.127987,0.32816,0.20944,-0.21322
0.966534,0.253662,0.136753,0.32998,0.20426,-0.20804
0.962436,0.255008,0.146119,0.32592,0.20328,-0.2086
0.95742,0.264439,0.152799,0.33474,0.20076,-0.2079
0.966534,0.288083,0.167329,0.33166,0.20398,-0.21308
0.957481,0.297573,0.172736,0.3367,0.20594,-0.21084
0.946165,0.303694,0.183345,0.33894,0.20524,-0.20594
0.939253,0.308041,0.197182,0.3409,0.20818,-0.20342
0.923777,0.306321,0.21092,0.34314,0.2072,-0.20202
0.903162,0.278691,0.211338,0.3416,0.20664,-0.20398
0.903713,0.280713,0.222464,0.34776,0.21056,-0.2044
0.91246,0.293333,0.228985,0.34874,0.20664,-0.2016
0.939497,0.313859,0.240225,0.34916,0.19936,-0.19866
0.949346,0.320784,0.24399,0.34762,0.20342,-0.19866
0.953016,0.343079,0.254806,0.34622,0.20706,-0.19908
0.943657,0.353365,0.268467,0.3535,0.20944,-0.19334
0.918088,0.32947,0.277765,0.35084,0.20412,-0.18984
0.910074,0.32665,0.294172,0.35728,0.20972,-0.18606
0.909035,0.306867,0.306583,0.35574,0.20692,-0.18704
0.910931,0.292291,0.3133,0.3563,0.20986,-0.18144
0.901205,0.296575,0.317669,0.35462,0.20832,-0.18214
0.886952,0.298347,0.317035,0.35952,0.20846,-0.1841
0.870497,0.311693,0.320935,0.35994,0.20958,-0.17976
0.834591,0.303168,0.313756,0.35994,0.2072,-0.18088
0.800702,0.315651,0.319415,0.3591,0.2086,-0.18396
0.783758,0.317116,0.332117,0.36218,0.21112,-0.17304
0.804801,0.308548,0.356881,0.3661,0.20888,-0.17332
0.831165,0.301146,0.384381,0.3654,0.21098,-0.17752
0.855694,0.301399,0.405224,0.3654,0.20804,-0.16996
0.870192,0.308753,0.423466,0.36778,0.21182,-0.1659
0.86334,0.304402,0.432105,0.37408,0.2128,-0.16338
0.864075,0.308629,0.440358,0.37534,0.20958,-0.15918
0.871354,0.305507,0.452382,0.3731,0.2149,-0.15694
0.872394,0.287379,0.459345,0.3745,0.2142,-0.15834
0.867989,0.297973,0.464373,0.37772,0.21448,-0.15344
0.856918,0.315425,0.462083,0.37618,0.21896,-0.15708
0.836426,0.303107,0.462259,0.38122,0.21588,-0.15078
0.811468,0.299547,0.465262,0.378,0.21812,-0.15022
0.774216,0.264379,0.451723,0.38276,0.21588,-0.1491
0.742835,0.280844,0.448938,0.37968,0.21574,-0.14742
0.73629,0.278392,0.442781,0.38304,0.22106,-0.15078
0.761676,0.307309,0.466683,0.38402,0.21784,-0.14826
0.766692,0.300757,0.484154,0.38136,0.21952,-0.1477
0.796115,0.293907,0.516049,0.38724,0.2205,-0.14616
0.813426,0.312287,0.548408,0.38808,0.2177,-0.13762
0.800825,0.329064,0.571985,0.38822,0.22064,-0.13874
0.776234,0.335426,0.555851,0.39018,0.22344,-0.13888
0.771157,0.347245,0.550609,0.39368,0.22036,-0.13048
0.774338,0.356556,0.579643,0.3927,0.21812,-0.13244
0.791588,0.322018,0.599216,0.39564,0.22302,-0.1281
0.806024,0.317858,0.612871,0.39424,0.22372,-0.12698
0.795136,0.312342,0.60648,0.39704,0.22512,-0.12768
0.781189,0.298189,0.608961,0.39704,0.2282,-0.12348
0.750788,0.326476,0.59407,0.40166,0.22526,-0.12474
0.724729,0.352191,0.561681,0.39956,0.22484,-0.12222
0.709804,0.342264,0.579206,0.39984,0.22568,-0.13048
0.680197,0.327984,0.589189,0.40026,0.22806,-0.12936
0.652793,0.289144,0.608639,0.39788,0.23002,-0.1309
0.632118,0.299121,0.629852,0.40376,0.22708,-0.12404
0.635665,0.314127,0.64678,0.40404,0.23128,-0.1211
0.668086,0.302685,0.661485,0.40404,0.23114,-0.11676
0.702463,0.286833,0.687067,0.4074,0.23184,-0.10682
0.707173,0.270298,0.722207,0.40474,0.2317,-0.1043
0.68399,0.384333,0.706455,0.41286,0.23058,-0.09954
0.654873,0.342124,0.685434,0.41076,0.23394,-0.09758
0.667902,0.337963,0.733514,0.41272,0.23716,-0.08708
0.644413,0.34653,0.714505,0.41034,0.23814,-0.0882
0.654995,0.312909,0.726331,0.4179,0.2373,-0.08918
0.653405,0.306416,0.739907,0.41076,0.24262,-0.0868
0.643251,0.326379,0.737554,0.41608,0.2457,-0.08568
0.611993,0.308179,0.74424,0.41622,0.2415,-0.07896
0.607772,0.270816,0.771085,0.41594,0.24192,-0.08008
0.613583,0.255261,0.786473,0.4179,0.24248,-0.07154
0.625144,0.305855,0.792198,0.41692,0.24248,-0.0721
0.602144,0.334573,0.777103,0.41762,0.2429,-0.07098
0.582325,0.333341,0.756064,0.42,0.24556,-0.06832
0.551373,0.334373,0.757555,0.4186,0.24612,-0.07028
0.530392,0.303007,0.751126,0.42056,0.24346,-0.06916
0.513203,0.294488,0.758875,0.41524,0.24388,-0.07
0.507575,0.256145,0.785052,0.42084,0.25074,-0.06692
0.502131,0.261227,0.788308,0.41846,0.24738,-0.06622
0.522073,0.287815,0.799141,0.42224,0.25046,-0.0637
0.519503,0.28567,0.80948,0.42168,0.24752,-0.06622
0.514426,0.321927,0.806444,0.42476,0.25172,-0.0616
0.504333,0.341094,0.809348,0.4193,0.25354,-0.06006
0.5214,0.343427,0.81566,0.4221,0.25004,-0.06202
0.520788,0.311946,0.824583,0.42252,0.25186,-0.06174
0.520788,0.282915,0.845426,0.4235,0.25382,-0.05908
0.547948,0.257996,0.876284,0.42336,0.2534,-0.0574
0.579634,0.253964,0.876319,0.42462,0.25032,-0.05922
0.564402,0.286788,0.82611,0.42252,0.25088,-0.05908
0.536019,0.247213,0.796895,0.42336,0.25074,-0.06104
0.541586,0.232515,0.813996,0.42378,0.25438,-0.05278
0.533389,0.233615,0.826797,0.42308,0.25018,-0.0504
0.510267,0.249899,0.841475,0.41958,0.24962,-0.05502
0.475033,0.254236,0.867129,0.42014,0.24738,-0.0532
0.435028,0.267881,0.882465,0.41874,0.24318,-0.05264
0.382115,0.262106,0.875272,0.41706,0.24472,-0.05012
0.335749,0.252353,0.869222,0.41622,0.2436,-0.05278
0.315318,0.248855,0.864631,0.42154,0.24472,-0.0483
0.354711,0.212548,0.898266,0.41986,0.24906,-0.04564
0.422243,0.225004,0.916731,0.42294,0.2485,-0.0413
0.427198,0.272288,0.879124,0.42196,0.24836,-0.04228
0.399488,0.274852,0.839582,0.4207,0.2485,-0.04522
0.390373,0.26168,0.822852,0.42,0.24738,-0.03724
0.400528,0.237552,0.862011,0.41902,0.2471,-0.03864
0.378201,0.227317,0.859136,0.41972,0.24962,-0.04172
0.355629,0.220695,0.855406,0.42126,0.24626,-0.0371
0.326145,0.223012,0.878108,0.42224,0.24696,-0.03374
0.354528,0.246847,0.876262,0.4221,0.2422,-0.02954
0.409214,0.227756,0.896652,0.42224,0.2443,-0.0273
0.452155,0.198065,0.929361,0.42,0.24696,-0.02436
0.446283,0.213313,0.923755,0.41944,0.24472,-0.01526
0.415086,0.216794,0.913141,0.41622,0.2443,-0.014
0.341009,0.192516,0.902946,0.4165,0.24416,-0.0168
0.306999,0.205734,0.888857,0.41398,0.24248,-0.01638
0.296539,0.18062,0.905878,0.41286,0.2394,-0.01036
0.299352,0.244624,0.887785,0.41314,0.24066,-0.01078
0.324677,0.218541,0.909476,0.41482,0.2422,-0.00644
0.348655,0.197112,0.92836,0.41664,0.24052,-0.00686
0.322658,0.204392,0.92721,0.41412,0.24444,-0.00392
0.269257,0.198372,0.941295,0.41048,0.2443,-0.0049
0.248337,0.187831,0.963055,0.41132,0.24206,-0.00336
0.250906,0.182503,0.961274,0.41188,0.2408,0.00224
0.243015,0.204488,0.940695,0.41076,0.24332,0.00266
0.282775,0.200704,0.932699,0.41202,0.23814,-0.00224
0.3081,0.199181,0.934463,0.41258,0.24024,0.0063
0.29819,0.195442,0.94525,0.41286,0.23394,0.00798
0.282592,0.188883,0.946576,0.41356,0.2359,0.01162
0.2569,0.157761,0.958319,0.40838,0.2345,0.0154
0.211451,0.147763,0.954589,0.40712,0.23534,0.01806
0.200502,0.148801,0.974612,0.41034,0.23352,0.01386
0.235307,0.183111,0.987057,0.4081,0.23422,0.02044
0.248581,0.228315,0.975778,0.40824,0.23618,0.02044
0.244666,0.187095,0.975843,0.40488,0.23464,0.01876
0.214448,0.158666,0.963815,0.40306,0.23282,0.01806
0.174627,0.12509,0.956582,0.40292,0.2331,0.01946
0.139882,0.16103,0.938219,0.40194,0.231,0.02296
0.158478,0.157729,0.960483,0.4025,0.2373,0.02142
0.169366,0.163184,0.977146,0.40614,0.23534,0.0245
0.183924,0.128155,0.989817,0.39942,0.23282,0.02436
0.190959,0.131587,0.983439,0.39872,0.23632,0.02226
0.206924,0.105378,0.984614,0.40124,0.2352,0.02436
0.193039,0.116276,0.994253,0.40068,0.23352,0.02492
0.133948,0.138734,0.97626,0.40362,0.23394,0.02464
0.10055,0.11992,0.989371,0.4088,0.2275,0.02954
0.087398,0.149192,0.992591,0.39984,0.22876,0.02464
0.11468,0.13389,1.01972,0.40012,0.2275,0.0273
0.124222,0.142712,1.01805,0.40096,0.2289,0.03024
0.132052,0.125014,1.03991,0.40306,0.22652,0.03262
0.13664,0.0823265,1.03402,0.40012,0.2282,0.02814
0.121653,0.101063,1.00154,0.4011,0.22708,0.03038
0.106667,0.062105,1.02413,0.40194,0.22876,0.0336
0.0814034,0.122242,1.01241,0.39648,0.22946,0.03374
0.0840337,0.0741633,1.02628,0.39914,0.22722,0.03598
0.0745523,0.0840823,1.01047,0.39956,0.2296,0.0329
0.105627,0.101609,1.03356,0.3962,0.23002,0.03416
0.10893,0.0873397,1.00775,0.3969,0.22722,0.03458
0.0894778,0.0858634,1.00236,0.3997,0.22988,0.02968
0.1126,0.0175802,0.992622,0.3997,0.23128,0.03276
0.0903954,0.0489928,0.983884,0.39788,0.23002,0.03472
0.108563,0.0601457,0.997164,0.39746,0.2268,0.0399
0.0598103,0.0628246,0.990145,0.39858,0.2275,0.04354
0.0513689,0.0902607,0.980391,0.39928,0.22722,0.04032
0.0574859,0.0699286,0.985078,0.39354,0.22554,0.04018
0.0836055,0.0536453,0.952905,0.38892,0.23002,0.04018
0.112233,-0.00238656,0.943707,0.39466,0.2289,0.04144
0.140004,-0.0176893,0.956651,0.39018,0.22792,0.0364
0.152728,0.0178383,0.964021,0.39298,0.22876,0.03808
0.116209,0.0159277,0.968767,0.3913,0.22624,0.03584
0.104403,0.108775,0.963619,0.39438,0.23268,0.0308
0.112417,0.0885658,0.996731,0.39844,0.224,0.03794
0.11468,0.14375,1.00077,0.39774,0.22652,0.03332
0.113151,0.119067,1.01868,0.40264,0.22596,0.03472
0.0828103,0.106991,1.01112,0.39984,0.22568,0.02506
0.0368104,0.0603672,0.998278,0.40236,0.22918,0.03024
-0.0184262,0.0284393,0.954342,0.4025,0.23002,0.02856
0.0168078,-0.0199346,0.975391,0.40376,0.23184,0.0329
0.0553449,0.0547385,0.967351,0.4074,0.2317,0.03164
0.123488,0.0150726,1.03135,0.40292,0.23604,0.0308
0.080547,0.0417624,1.00525,0.40852,0.23786,0.02912
0.0524699,0.0364859,0.99872,0.406,0.23716,0.02954
0.0220072,0.0134469,1.004,0.40684,0.23786,0.02968
0.0402971,0.0522225,1.01263,0.4123,0.24136,0.02898
0.0840949,0.0368637,1.03825,0.40936,0.23814,0.02562
0.0706374,0.0514974,1.02576,0.41048,0.23926,0.02772
0.0252492,0.0380694,1.02246,0.41062,0.23576,0.01932
0.0291641,0.0399694,1.00288,0.41188,0.23912,0.02954
0.0672119,0.0346533,1.00693,0.41076,0.24444,0.02982
0.0858688,0.0192864,1.00877,0.41132,0.2436,0.02702
0.0661109,0.0063567,0.997088,0.4144,0.24136,0.0266
0.0490444,-0.00589836,0.992425,0.4074,0.24542,0.0273
0.0533263,-0.00871433,0.983364,0.41398,0.2436,0.02758
0.0628077,-0.03664,0.998006,0.41076,0.24388,0.02548
0.0563236,-0.0658571,0.996552,0.40768,0.24136,0.02142
0.0578529,-0.0309456,0.993986,0.41622,0.24458,0.02744
0.0829938,-0.0381033,1.01195,0.41608,0.24598,0.0294
0.0894167,0.0162251,1.0128,0.41412,0.24556,0.0266
0.0823821,0.00140099,1.02663,0.4158,0.24668,0.028
0.0563848,-0.00185363,1.01466,0.4137,0.24444,0.02548
0.0459859,-0.0345631,1.01676,0.41468,0.24542,0.02436
0.0506348,-0.0491997,1.02433,0.41104,0.24388,0.02898
0.0864805,-0.0328962,1.03371,0.4144,0.25004,0.02254
0.0964512,-0.0447136,1.02402,0.41412,0.25004,0.0266
0.0814645,-0.0420236,1.01293,0.41468,0.25018,0.02254
0.0455577,-0.0616346,1.00875,0.41524,0.25298,0.03122
0.00744875,-0.0612796,0.998154,0.41594,0.25312,0.02996
0.00891684,-0.0420474,1.00421,0.4179,0.25326,0.02786
0.0317944,-0.0230533,1.00989,0.41804,0.25382,0.02674
0.0836667,-0.0230975,1.02944,0.4193,0.25578,0.0294
0.0827491,-0.0308762,1.0155,0.42322,0.2527,0.028
0.0733289,-0.0341254,0.988073,0.42798,0.25788,0.02912
0.0477598,-0.0427084,0.980622,0.42602,0.26264,0.02226
0.0732066,-0.0464974,0.988316,0.4242,0.26068,0.02856
0.0929645,-0.0499208,0.999267,0.42224,0.26502,0.02604
0.0640311,-0.0390282,0.988771,0.42322,0.26194,0.0287
0.0393184,-0.00461535,0.979551,0.42448,0.26292,0.02814
0.0319168,-0.0441835,0.984639,0.42126,0.26586,0.02702
0.0562013,-0.0384183,0.982189,0.42882,0.26824,0.03234
0.0864193,-0.0459419,0.989809,0.42532,0.26838,0.0343
0.0994486,-0.0439164,0.987205,0.42882,0.27062,0.03094
0.0714938,-0.0691595,0.972543,0.42616,0.27286,0.03024
0.0321615,-0.0677637,0.978276,0.42924,0.27538,0.02828
0.0230471,-0.0279559,0.983321,0.43204,0.27664,0.0308
0.0601162,-0.0181442,1.00144,0.4291,0.2786,0.0329
0.0965736,-0.0159886,1.00428,0.43204,0.27916,0.03178
0.077305,-0.00895146,0.993142,0.43736,0.28238,0.02898
0.0670896,-0.0218167,0.989682,0.43414,0.28742,0.03458
0.0516135,-0.0303964,0.97884,0.434,0.28406,0.0294
0.00903918,-0.0467634,0.968499,0.43484,0.28966,0.02968
0.0178477,-0.0314487,0.980094,0.43092,0.29204,0.03178
0.0145445,-0.00211233,0.984938,0.4382,0.2926,0.03108
0.056079,0.0189704,1.00537,0.4389,0.29946,0.02492
0.0988369,0.0252316,1.01583,0.44268,0.29918,0.02828
0.0624407,-0.0135499,0.995627,0.44282,0.29708,0.02982
0.0239647,-0.0173598,0.971582,0.44044,0.30268,0.02674
0.0464753,-0.0142901,0.979958,0.44114,0.30366,0.02534
0.0541827,-0.00350803,0.977004,0.44142,0.30968,0.02884
0.0451295,-0.014168,0.977394,0.44226,0.30646,0.03094
0.0499008,0.00120661,0.976894,0.44352,0.3066,0.02716
0.0551614,-0.00797876,0.977734,0.44226,0.31122,0.02492
0.0493503,-0.0371956,0.969063,0.44268,0.31192,0.02926
0.0675789,-0.0366384,0.970603,0.44226,0.31304,0.02758
0.0533263,-0.102484,0.991968,0.44128,0.31276,0.02478
0.0821986,-0.00552001,0.99478,0.44506,0.31444,0.0266
-0.0786787,-0.182639,1.01304,0.44506,0.31836,0.02912
0.0675789,0.079609,0.946779,0.44254,0.31962,0.02366
0.124039,0.0301396,1.06957,0.44604,0.32004,0.02898
0.095656,0.0454422,1.01921,0.44842,0.32634,0.028
0.0472093,0.00157321,1.00753,0.44282,0.33082,0.02632
0.0259833,0.0348235,1.00827,0.44632,0.32802,0.02884
0.00732641,0.00388754,1.00666,0.45388,0.32886,0.01624
-0.018365,0.0109838,0.989127,0.45192,0.32732,0.02478
-0.00668153,-0.00493666,0.983162,0.44856,0.32718,0.02688
0.0309381,-0.024401,0.996384,0.44884,0.32844,0.0266
0.0458024,-0.0279485,1.00007,0.45234,0.33306,0.02758
0.0260445,-0.025505,0.995052,0.44828,0.3339,0.02618
0.0241482,0.000218217,0.995979,0.45262,0.33838,0.021
0.0484939,0.0218465,1.02031,0.4494,0.33698,0.02702
0.0765709,0.0824293,1.02135,0.45024,0.33978,0.02814
0.10581,0.0587362,1.0385,0.44884,0.34146,0.02254
0.0804247,0.0420686,1.0176,0.45164,0.34202,0.02226
0.0242705,0.0252684,0.986201,0.45626,0.3444,0.02576
0.0390737,0.0267432,1.01844,0.45556,0.34356,0.02352
0.0519806,-0.00595864,1.01583,0.45346,0.34146,0.02562
0.0229248,-0.0131341,1.00448,0.4494,0.34594,0.02786
0.026962,0.0132648,1.00166,0.45808,0.34594,0.03164
0.110214,0.0631474,1.05017,0.45444,0.3514,0.02562
0.110092,0.0301963,1.0405,0.45374,0.34776,0.02366
0.0114248,0.00425637,0.989167,0.45094,0.3542,0.02758
-0.0399581,-0.0430434,0.973097,0.45388,0.35602,0.02464
-0.0253384,-0.0350152,0.973425,0.45402,0.3507,0.02562
0.00910035,-0.033534,0.992835,0.45332,0.3528,0.02114
0.0788342,0.0134656,1.01497,0.4501,0.35308,0.0273
0.0767545,-0.0178938,1.01173,0.45038,0.35504,0.03052
0.0300205,-0.0256262,0.992779,0.45164,0.35966,0.03066
0.0109966,-0.0381882,0.990995,0.44814,0.35126,0.03178
0.0622571,0.0094178,1.01018,0.44982,0.35154,0.03752
0.0973688,0.0216175,1.03161,0.4529,0.35238,0.03374
0.067946,0.00262121,1.01573,0.4473,0.34846,0.03262
0.00854982,-0.0501934,0.98672,0.45038,0.34888,0.035
-0.0254607,-0.0897091,0.964429,0.45038,0.34678,0.03514
0.00610301,-0.0708346,0.965752,0.4529,0.34986,0.03108
0.0880709,-0.0596607,1.00179,0.45052,0.34412,0.03136
0.114863,-0.0496686,1.01211,0.44786,0.34286,0.03164
0.0743688,-0.0518255,0.998767,0.44828,0.3409,0.03458
0.0234753,-0.0630505,0.987838,0.44926,0.34258,0.03458
-0.0138996,-0.0724948,0.975589,0.44758,0.34342,0.03584
-0.0108411,-0.0696764,0.980533,0.44618,0.33978,0.03416
0.00683705,-0.066057,0.990634,0.45066,0.33684,0.0378
0.0317944,-0.0850968,1.00242,0.44702,0.33796,0.04046
0.0557731,-0.0676334,1.01318,0.44828,0.33306,0.03542
0.061829,-0.0673865,1.02356,0.44772,0.33404,0.04326
0.0812199,-0.0483322,1.02761,0.44898,0.33502,0.0378
0.05718,-0.0079781,1.02212,0.44926,0.33418,0.03612
-0.029498,-0.0743373,0.99648,0.44632,0.33586,0.03584
-0.124006,-0.117915,0.960903,0.44674,0.33446,0.03892
0.0713103,-0.14578,1.01686,0.4424,0.33418,0.04032
0.0336295,-0.193565,0.964921,0.44422,0.33376,0.04312
-0.0480937,-0.170808,0.965149,0.44324,0.32928,0.04368
0.0588928,-0.149888,0.934962,0.44758,0.33026,0.04452
0.0428051,-0.122822,0.957144,0.44268,0.33054,0.04424
-0.0709713,-0.137926,0.969558,0.44212,0.33096,0.04326
-0.112995,-0.157845,0.972177,0.44282,0.33054,0.04214
-0.200407,-0.261136,0.990434,0.4452,0.32774,0.04424
-0.143886,-0.225104,0.951829,0.43904,0.32494,0.04746
-0.157221,-0.160309,1.0091,0.44072,0.3227,0.04746
0.0336907,-0.267184,1.01229,0.44212,0.32354,0.05068
0.00175994,-0.153765,1.02077,0.43834,0.31724,0.04746
-0.0125539,-0.185924,1.02631,0.43344,0.31976,0.04718
-0.0942159,-0.206101,0.984222,0.43806,0.31486,0.05068
-0.130429,-0.264543,0.968415,0.43834,0.31584,0.04718
-0.149269,-0.274349,0.937467,0.43484,0.31458,0.04634
-0.106266,-0.292893,0.967916,0.43274,0.31332,0.0504
-0.0905457,-0.235989,0.985919,0.42924,0.31178,0.05586
-0.0940936,-0.203223,0.997368,0.4333,0.30814,0.05236
-0.107367,-0.199859,0.995815,0.42784,0.30422,0.0588
-0.125351,-0.232203,0.984548,0.43372,0.30408,0.0581
-0.149881,-0.272267,0.962169,0.42868,0.3045,0.05432
-0.185421,-0.30474,0.937133,0.4298,0.30016,0.05922
-0.185237,-0.325074,0.942876,0.42378,0.29834,0.063
-0.174349,-0.308105,0.948657,0.42294,0.2947,0.0637
-0.162115,-0.265779,0.967095,0.42448,0.29736,0.06622
-0.140522,-0.211078,0.993091,0.42098,0.29344,0.06398
-0.138748,-0.206484,0.997489,0.41874,0.28714,0.06622
-0.145171,-0.222655,0.990473,0.41888,0.28868,0.06594
-0.177224,-0.256719,0.962797,0.41776,0.28294,0.06748
-0.236803,-0.297345,0.927187,0.42154,0.28294,0.0686
-0.254298,-0.321299,0.93475,0.4193,0.28434,0.07042
-0.251607,-0.277261,0.935179,0.41412,0.28042,0.0714
-0.227873,-0.257899,0.953826,0.41174,0.28448,0.0707
-0.189947,-0.243249,0.968337,0.41188,0.28,0.06678
-0.182668,-0.245635,0.960124,0.40894,0.28196,0.0749
-0.214293,-0.296664,0.941799,0.41034,0.27776,0.0735
-0.275279,-0.321979,0.910352,0.40488,0.27356,0.07798
