ax,ay,az
-0.020752,-0.14209,-0.972778
-0.0213013,-0.141357,-0.9729
-0.0213013,-0.143372,-0.969666
-0.0218506,-0.145081,-0.969421
-0.0206909,-0.142456,-0.972595
-0.024231,-0.140015,-0.973083
-0.0236816,-0.141174,-0.970154
-0.0216675,-0.143433,-0.971436
-0.0215454,-0.141968,-0.969849
-0.0234375,-0.144287,-0.971313
-0.0219116,-0.141846,-0.974548
-0.0187378,-0.143433,-0.96991
-0.0211182,-0.141968,-0.97229
-0.0214844,-0.141113,-0.970947
-0.0204468,-0.141663,-0.972046
-0.0216675,-0.143188,-0.970581
-0.0220947,-0.143372,-0.973267
-0.0204468,-0.14209,-0.971313
-0.0227051,-0.144104,-0.972168
-0.0213623,-0.14032,-0.970337
-0.0203857,-0.142883,-0.971558
-0.0194092,-0.143799,-0.970703
-0.0201416,-0.143555,-0.9729
-0.0223389,-0.140625,-0.972046
-0.0195312,-0.144836,-0.970154
-0.0211182,-0.142456,-0.972168
-0.0201416,-0.142151,-0.971558
-0.0213013,-0.143555,-0.971802
-0.020874,-0.141541,-0.972351
-0.0214844,-0.144348,-0.971436
-0.0217285,-0.141113,-0.972778
-0.0196533,-0.143372,-0.971741
-0.0199585,-0.142029,-0.968872
-0.0217896,-0.142883,-0.973022
-0.0214844,-0.144104,-0.9729
-0.0195312,-0.140991,-0.973206
-0.0220337,-0.143433,-0.973511
-0.0205078,-0.140198,-0.973083
-0.0223389,-0.143372,-0.970154
-0.0195923,-0.143982,-0.973267
-0.019165,-0.14447,-0.974182
-0.0213623,-0.140747,-0.970459
-0.0215454,-0.141968,-0.972351
-0.0221558,-0.145325,-0.971802
-0.0216064,-0.14093,-0.97229
-0.0222168,-0.1427,-0.971558
-0.0206909,-0.142334,-0.971436
-0.0213623,-0.140198,-0.973572
-0.0195923,-0.142517,-0.972046
-0.0204468,-0.14209,-0.971191
-0.0210571,-0.144104,-0.972229
-0.0202026,-0.139832,-0.971558
-0.0217285,-0.143738,-0.972778
-0.0211182,-0.142212,-0.970581
-0.0197144,-0.142517,-0.972656
-0.0192261,-0.145142,-0.970581
-0.0205078,-0.141663,-0.971802
-0.0217896,-0.143372,-0.971069
-0.0222168,-0.155579,-0.973755
-0.0218506,-0.140747,-0.970032
-0.020874,-0.141296,-0.97052
-0.0216064,-0.138611,-0.970825
-0.0206299,-0.142334,-0.972534
-0.0239258,-0.142334,-0.97052
-0.020874,-0.141113,-0.972412
-0.0202637,-0.14032,-0.973206
-0.0217896,-0.141846,-0.972351
-0.0198975,-0.142395,-0.970398
-0.0205078,-0.143555,-0.971191
-0.0227661,-0.142029,-0.973572
-0.0211182,-0.142395,-0.972717
-0.0202026,-0.143799,-0.973389
-0.0195923,-0.142151,-0.971008
-0.0197144,-0.142761,-0.972229
-0.0213623,-0.141052,-0.972046
-0.0228271,-0.140808,-0.970337
-0.0222168,-0.143127,-0.971252
-0.020752,-0.144531,-0.969482
-0.0195923,-0.143921,-0.974243
-0.0230103,-0.143188,-0.970764
-0.0228882,-0.139587,-0.972046
-0.0202637,-0.142029,-0.970398
-0.0202026,-0.141541,-0.9729
-0.020752,-0.141602,-0.972656
-0.020813,-0.141235,-0.973145
-0.0220337,-0.141174,-0.973206
-0.0205688,-0.143005,-0.971558
-0.0218506,-0.143494,-0.97229
-0.0214233,-0.140259,-0.973633
-0.0241699,-0.142395,-0.973511
-0.0205688,-0.142578,-0.970093
-0.0230713,-0.143982,-0.968445
-0.0205078,-0.142273,-0.973083
-0.0233154,-0.142395,-0.970459
-0.0218506,-0.1427,-0.972534
-0.0200195,-0.142151,-0.972229
-0.0192871,-0.143433,-0.968872
-0.022522,-0.14325,-0.971619
-0.0214844,-0.140564,-0.972412
-0.0213013,-0.142029,-0.972229
-0.0187988,-0.315125,-0.92749
-0.0203247,-0.314087,-0.932251
-0.0187988,-0.316101,-0.931519
-0.0179443,-0.314941,-0.93103
-0.0195923,-0.313782,-0.929565
-0.0148315,-0.315002,-0.929321
-0.019104,-0.313965,-0.929871
-0.0181885,-0.314819,-0.928284
-0.0187378,-0.315552,-0.929504
-0.0198364,-0.315247,-0.929138
-0.017395,-0.313477,-0.927307
-0.019104,-0.313049,-0.929504
-0.0184937,-0.315613,-0.930298
-0.0178833,-0.312561,-0.92865
-0.0182495,-0.315918,-0.92981
-0.0176392,-0.313843,-0.929626
-0.0178223,-0.314331,-0.929016
-0.0180054,-0.314636,-0.92981
-0.0167847,-0.315674,-0.927002
-0.0189209,-0.313538,-0.928101
-0.0181885,-0.311646,-0.93042
-0.0223999,-0.312622,-0.929077
-0.0183716,-0.315674,-0.929077
-0.0167236,-0.31366,-0.929688
-0.0178223,-0.314087,-0.929749
-0.0177002,-0.297485,-0.928223
-0.0183105,-0.311584,-0.927002
-0.0177002,-0.315552,-0.929688
-0.0178833,-0.314392,-0.930603
-0.0197144,-0.314331,-0.929321
-0.0187988,-0.313721,-0.931519
-0.0170288,-0.316345,-0.928772
-0.0197144,-0.314758,-0.930908
-0.0175171,-0.31543,-0.928772
-0.0160522,-0.31427,-0.927795
-0.0186157,-0.312256,-0.928284
-0.0192261,-0.314087,-0.926819
-0.0180054,-0.313049,-0.928406
-0.0187378,-0.313599,-0.92865
-0.0192261,-0.312866,-0.928406
-0.0192261,-0.31543,-0.929749
-0.0187988,-0.314453,-0.929138
-0.0189209,-0.314331,-0.926636
-0.0185547,-0.314575,-0.930603
-0.0212402,-0.314758,-0.930542
-0.0170288,-0.316284,-0.930603
-0.0177002,-0.314148,-0.928345
-0.0170288,-0.312988,-0.929077
-0.0181274,-0.31311,-0.928833
-0.0183105,-0.316284,-0.930908
-0.0187378,-0.314392,-0.929688
-0.0193481,-0.314087,-0.929932
-0.019165,-0.313477,-0.928345
-0.0198364,-0.311829,-0.926636
-0.0200195,-0.313416,-0.92804
-0.0177612,-0.314392,-0.929443
-0.0184937,-0.317871,-0.92865
-0.0182495,-0.315735,-0.92865
-0.0198364,-0.31366,-0.926636
-0.0149536,-0.314575,-0.928223
-0.0178833,-0.314575,-0.927979
-0.0181274,-0.314514,-0.929016
-0.0197144,-0.313171,-0.929749
-0.0186157,-0.314819,-0.928833
-0.0189819,-0.31366,-0.928589
-0.0172729,-0.315674,-0.928772
-0.0172729,-0.315979,-0.928345
-0.0012207,-0.312317,-0.929016
-0.0172729,-0.312683,-0.927795
-0.0198364,-0.312378,-0.928467
-0.0178223,-0.313721,-0.92926
-0.0180664,-0.315186,-0.929321
-0.0178833,-0.314575,-0.927612
-0.0223999,-0.313721,-0.930176
-0.0184326,-0.31488,-0.929993
-0.0174561,-0.314636,-0.928467
-0.0186768,-0.31366,-0.92981
-0.0187378,-0.313721,-0.929443
-0.0186768,-0.312744,-0.928833
-0.0180664,-0.313232,-0.927429
-0.0181274,-0.317627,-0.92926
-0.0196533,-0.313904,-0.929199
-0.0196533,-0.315369,-0.927734
-0.0168457,-0.315552,-0.930298
-0.0165405,-0.31427,-0.927856
-0.0198364,-0.31665,-0.929565
-0.0178223,-0.315613,-0.930298
-0.0184326,-0.312012,-0.929077
-0.0181274,-0.327698,-0.929321
-0.0183105,-0.31366,-0.926758
-0.0180054,-0.31366,-0.929077
-0.0177002,-0.314453,-0.926941
-0.0202637,-0.315613,-0.929321
-0.0183716,-0.31488,-0.925415
-0.0193481,-0.314575,-0.929382
-0.0174561,-0.313843,-0.926758
-0.019043,-0.3125,-0.927856
-0.0177612,-0.314758,-0.929077
-0.0167236,-0.31427,-0.926514
-0.0178223,-0.315613,-0.927063
-0.0172729,-0.356995,-0.913879
-0.0174561,-0.355835,-0.912964
-0.020874,-0.356628,-0.91156
-0.0170288,-0.355042,-0.913574
-0.0177002,-0.355896,-0.915283
-0.0177002,-0.357544,-0.914734
-0.0166626,-0.357239,-0.915161
-0.0180054,-0.355957,-0.91449
-0.019104,-0.354553,-0.913452
-0.0170898,-0.356445,-0.91394
-0.0179443,-0.356079,-0.912537
-0.0172119,-0.356689,-0.913757
-0.0174561,-0.354858,-0.91449
-0.0194702,-0.355225,-0.915039
-0.0182495,-0.357239,-0.912598
-0.019043,-0.357178,-0.911804
-0.0189209,-0.355469,-0.913574
-0.0175171,-0.35437,-0.912048
-0.0174561,-0.356018,-0.913818
-0.0164795,-0.355286,-0.914185
-0.0180054,-0.356201,-0.913147
-0.019165,-0.357056,-0.91449
-0.0198975,-0.354065,-0.912903
-0.0172729,-0.355713,-0.916016
-0.017395,-0.357361,-0.913025
-0.0180054,-0.354431,-0.912292
-0.0184326,-0.354675,-0.913696
-0.020752,-0.355957,-0.913818
-0.0310059,-0.359192,-0.914185
-0.000244141,-0.354858,-0.913086
-0.0203857,-0.356384,-0.914673
-0.0192871,-0.35321,-0.914429
-0.0172729,-0.356079,-0.914246
-0.0169067,-0.356323,-0.915039
-0.0178223,-0.356567,-0.913574
-0.0189209,-0.354492,-0.915161
-0.0187378,-0.354492,-0.913879
-0.0310059,-0.355774,-0.912964
-0.017334,-0.357239,-0.913269
-0.0168457,-0.356934,-0.914368
-0.0203247,-0.354614,-0.916626
-0.0171509,-0.356201,-0.915039
-0.0183105,-0.356262,-0.915039
-0.0166016,-0.357361,-0.911865
-0.0164795,-0.355652,-0.914429
-0.0189819,-0.356384,-0.914429
-0.020752,-0.355835,-0.915588
-0.0178223,-0.355835,-0.912903
-0.0189209,-0.356812,-0.91394
-0.0199585,-0.355469,-0.914307
-0.0196533,-0.35376,-0.913574
-0.0172119,-0.35376,-0.912109
-0.0180664,-0.354126,-0.913086
-0.0177612,-0.3573,-0.910828
-0.0186768,-0.355896,-0.916138
-0.0189209,-0.355286,-0.915771
-0.0186157,-0.356201,-0.913696
-0.0160522,-0.35675,-0.911987
-0.0179443,-0.356445,-0.914307
-0.019104,-0.354858,-0.914917
-0.0206299,-0.355225,-0.913208
-0.0172119,-0.356079,-0.912598
-0.0150146,-0.356995,-0.913025
-0.0186157,-0.355835,-0.915161
-0.017334,-0.355164,-0.91394
-0.0180054,-0.356323,-0.911011
-0.0158081,-0.354126,-0.913574
-0.0160522,-0.358521,-0.913452
-0.0180054,-0.356323,-0.909119
-0.0194092,-0.356201,-0.916809
-0.0195312,-0.355469,-0.915283
-0.0169678,-0.357056,-0.91272
-0.0153809,-0.355774,-0.913513
-0.0201416,-0.355713,-0.915161
-0.0193481,-0.35498,-0.915466
-0.0172729,-0.356873,-0.912964
-0.0145874,-0.357727,-0.912842
-0.0151978,-0.355408,-0.911499
-0.0217896,-0.356567,-0.914001
-0.020874,-0.354126,-0.913635
-0.0176392,-0.353882,-0.913879
-0.0161133,-0.357361,-0.914429
-0.0185547,-0.356506,-0.914429
-0.0181885,-0.354492,-0.915039
-0.0189819,-0.355652,-0.915405
-0.0165405,-0.356567,-0.9151
-0.0169067,-0.355957,-0.912903
-0.019165,-0.357544,-0.913696
-0.0216064,-0.356079,-0.913818
-0.0195312,-0.357422,-0.914368
-0.0187988,-0.353027,-0.911072
-0.0174561,-0.356445,-0.913818
-0.0183716,-0.355713,-0.915588
-0.0203247,-0.355103,-0.911926
-0.0184326,-0.356445,-0.914917
-0.0311279,-0.35553,-0.91333
-0.0158081,-0.356934,-0.913208
-0.020813,-0.354614,-0.913513
-0.0177002,-0.354675,-0.912781
-0.0170288,-0.355286,-0.912903
-0.0165405,-0.399536,-0.895203
-0.0175781,-0.400269,-0.895691
-0.0189209,-0.398865,-0.892212
-0.0159302,-0.401184,-0.891602
-0.0195312,-0.399048,-0.894653
-0.020813,-0.395874,-0.894409
-0.0175781,-0.401489,-0.891357
-0.0180664,-0.400757,-0.892944
-0.0193481,-0.398193,-0.893738
-0.0184937,-0.39978,-0.894165
-0.0168457,-0.401062,-0.892273
-0.0185547,-0.400452,-0.896729
-0.0184326,-0.398987,-0.894043
-0.0174561,-0.399353,-0.894897
-0.0185547,-0.397339,-0.89325
-0.0189209,-0.397095,-0.896484
-0.017334,-0.400696,-0.893921
-0.0162964,-0.400146,-0.890991
-0.0180054,-0.3974,-0.895874
-0.0233154,-0.400024,-0.895508
-0.0189819,-0.39978,-0.892822
-0.0181885,-0.399658,-0.894043
-0.0185547,-0.401428,-0.895508
-0.0180664,-0.400696,-0.892639
-0.0157471,-0.399353,-0.889648
-0.0170288,-0.401245,-0.891174
-0.0174561,-0.399414,-0.894653
-0.0186157,-0.400024,-0.894653
-0.0192871,-0.398926,-0.893311
-0.0192871,-0.399902,-0.896545
-0.0176392,-0.399536,-0.894653
-0.0211182,-0.399109,-0.897888
-0.0185547,-0.399475,-0.893555
-0.0184326,-0.398743,-0.894348
-0.0182495,-0.399719,-0.891479
-0.0187988,-0.399414,-0.891479
-0.0161133,-0.40271,-0.893799
-0.0148315,-0.399414,-0.891602
-0.0172729,-0.399475,-0.893799
-0.0238647,-0.398499,-0.893127
-0.0162354,-0.400085,-0.891663
-0.0147705,-0.400513,-0.893494
-0.019165,-0.39679,-0.894714
-0.020813,-0.399109,-0.892212
-0.0187988,-0.39856,-0.891541
-0.0166626,-0.402771,-0.893982
-0.017395,-0.400452,-0.895203
-0.019165,-0.398621,-0.890808
-0.0167847,-0.398438,-0.894714
-0.0168457,-0.400757,-0.895264
-0.0163574,-0.402832,-0.890503
-0.015686,-0.39856,-0.896118
-0.0185547,-0.399841,-0.893433
-0.0212402,-0.39978,-0.894653
-0.0168457,-0.399414,-0.894043
-0.017334,-0.401245,-0.896118
-0.0185547,-0.398071,-0.895142
-0.0189209,-0.399048,-0.894653
-0.0181274,-0.399353,-0.892639
-0.0127563,-0.40271,-0.895386
-0.0164185,-0.3974,-0.894409
-0.0223999,-0.398254,-0.894653
-0.0217285,-0.396057,-0.895142
-0.0182495,-0.399597,-0.891296
-0.0163574,-0.400085,-0.894043
-0.019043,-0.399109,-0.891968
-0.0205078,-0.398743,-0.893311
-0.0182495,-0.400757,-0.891052
-0.0152588,-0.400696,-0.891113
-0.0200806,-0.397034,-0.891052
-0.0197144,-0.399597,-0.895691
-0.0199585,-0.399292,-0.895386
-0.0172729,-0.40033,-0.897217
-0.0200195,-0.398621,-0.894409
-0.0177612,-0.399841,-0.892456
-0.0136719,-0.400024,-0.893616
-0.0157471,-0.401428,-0.891846
-0.020813,-0.396912,-0.895996
-0.019043,-0.400085,-0.89447
-0.0140381,-0.402405,-0.893188
-0.0185547,-0.400269,-0.893677
-0.0205078,-0.399475,-0.895691
-0.0180054,-0.397949,-0.89502
-0.0182495,-0.39856,-0.89209
-0.0178223,-0.398926,-0.894714
-0.0197754,-0.394897,-0.893066
-0.0174561,-0.399963,-0.89209
-0.0172729,-0.398621,-0.895813
-0.017334,-0.400146,-0.895081
-0.0177002,-0.398193,-0.89447
-0.0136108,-0.401306,-0.890503
-0.0155029,-0.396118,-0.893677
-0.0221558,-0.399963,-0.893188
-0.0166016,-0.399292,-0.89447
-0.0160522,-0.401306,-0.893188
-0.0197754,-0.396912,-0.897522
-0.020813,-0.396729,-0.895691
-0.0150146,-0.400696,-0.892639
-0.0177002,-0.400452,-0.893127
-0.0213013,-0.398071,-0.896973
-0.0181885,-0.51239,-0.834045
-0.0131226,-0.515015,-0.833435
-0.0162964,-0.51239,-0.836365
-0.0154419,-0.513123,-0.835205
-0.0180054,-0.513062,-0.832642
-0.019165,-0.514038,-0.835754
-0.0151367,-0.512329,-0.833008
-0.0188599,-0.514099,-0.833618
-0.017395,-0.513367,-0.834778
-0.0157471,-0.511963,-0.83429
-0.0183716,-0.513184,-0.833374
-0.015625,-0.513855,-0.831482
-0.0178833,-0.513306,-0.835083
-0.0172119,-0.512939,-0.832886
-0.0164185,-0.51355,-0.836121
-0.0170288,-0.513367,-0.834045
-0.0144043,-0.514404,-0.829956
-0.015625,-0.512024,-0.833008
-0.0169067,-0.51178,-0.834106
-0.0177002,-0.514404,-0.833069
-0.0169678,-0.513306,-0.835205
-0.0145264,-0.513611,-0.83429
-0.0184326,-0.513672,-0.833984
-0.0159302,-0.513245,-0.834045
-0.015564,-0.512939,-0.834106
-0.0164795,-0.514221,-0.832947
-0.0165405,-0.514282,-0.834412
-0.0162354,-0.514771,-0.832153
-0.0164795,-0.511841,-0.832581
-0.0147095,-0.511292,-0.834351
-0.0165405,-0.513184,-0.833557
-0.0175781,-0.516235,-0.833618
-0.0183716,-0.513306,-0.834839
-0.0132446,-0.513306,-0.834656
-0.0310059,-0.514221,-0.833435
-0.0183105,-0.510254,-0.834045
-0.0155029,-0.519409,-0.833679
-0.0153198,-0.506104,-0.833923
-0.0189819,-0.517944,-0.828308
-0.0159912,-0.515869,-0.834167
-0.015625,-0.509766,-0.840332
-0.017334,-0.513428,-0.831726
-0.0155029,-0.516235,-0.827881
-0.0172729,-0.51062,-0.833435
-0.017395,-0.512695,-0.838257
-0.0174561,-0.515137,-0.833374
-0.0153198,-0.517517,-0.83374
-0.0135498,-0.513123,-0.831787
-0.0149536,-0.512573,-0.833923
-0.0162354,-0.513306,-0.835205
-0.0162964,-0.513855,-0.833679
-0.0193481,-0.515686,-0.832764
-0.0175781,-0.511353,-0.834717
-0.0136719,-0.502258,-0.833557
-0.0150757,-0.511108,-0.834167
-0.0134277,-0.513611,-0.830933
-0.017395,-0.515259,-0.832764
-0.0167847,-0.510559,-0.835144
-0.0163574,-0.515625,-0.833252
-0.0160522,-0.513428,-0.834778
-0.015564,-0.500061,-0.834412
-0.0159912,-0.512756,-0.83429
-0.0151367,-0.512817,-0.829773
-0.0148315,-0.515259,-0.83313
-0.0193481,-0.513062,-0.832336
-0.0168457,-0.511169,-0.833069
-0.0158691,-0.51355,-0.832031
-0.0172729,-0.511292,-0.830444
-0.0158691,-0.512268,-0.833862
-0.015686,-0.513611,-0.832336
-0.0166626,-0.512878,-0.834778
-0.0169678,-0.515137,-0.831482
-0.0183716,-0.512939,-0.834045
-0.0169067,-0.513672,-0.834839
-0.0155029,-0.511719,-0.833679
-0.0186157,-0.515442,-0.83606
-0.0154419,-0.513306,-0.834961
-0.015625,-0.518127,-0.834717
-0.0145874,-0.513062,-0.833252
-0.0153809,-0.500061,-0.832092
-0.0197144,-0.513245,-0.833862
-0.0172729,-0.509583,-0.835266
-0.0150146,-0.51593,-0.83197
-0.0158691,-0.51355,-0.83075
-0.0167847,-0.511597,-0.833008
-0.0130615,-0.514771,-0.8349
-0.00134277,-0.51355,-0.834961
-0.0144653,-0.516052,-0.832397
-0.0169067,-0.514709,-0.836487
-0.0160522,-0.513,-0.833557
-0.0175781,-0.515015,-0.832581
-0.0134888,-0.511475,-0.833923
-0.0171509,-0.512085,-0.831665
-0.0176392,-0.513428,-0.831848
-0.0171509,-0.51355,-0.831909
-0.0150146,-0.512817,-0.833252
-0.0181274,-0.512024,-0.833496
-0.012207,-0.512207,-0.832153
-0.0160522,-0.514282,-0.832764
-0.0161743,-0.513916,-0.835144
-0.0153809,-0.617249,-0.76178
-0.0148315,-0.620178,-0.757446
-0.0178833,-0.620117,-0.757812
-0.0189819,-0.620911,-0.759766
-0.0164795,-0.618408,-0.762695
-0.0168457,-0.617371,-0.762756
-0.015564,-0.619995,-0.759644
-0.0136108,-0.619751,-0.75824
-0.0147095,-0.61853,-0.760193
-0.0161133,-0.617615,-0.762146
-0.0158081,-0.619019,-0.757568
-0.0174561,-0.620178,-0.759155
-0.013855,-0.618225,-0.758606
-0.0292969,-0.619263,-0.758789
-0.0168457,-0.620239,-0.75769
-0.0155029,-0.619263,-0.75946
-0.0151978,-0.617615,-0.759888
-0.0160522,-0.61853,-0.758301
-0.0159912,-0.61908,-0.759888
-0.000305176,-0.61676,-0.75708
-0.0142212,-0.617004,-0.756958
-0.0153809,-0.61969,-0.759583
-0.015564,-0.618408,-0.758057
-0.0133667,-0.618713,-0.758484
-0.017334,-0.617065,-0.760254
-0.0153198,-0.619019,-0.760559
-0.0151367,-0.62146,-0.75824
-0.0151367,-0.618713,-0.75769
-0.0305786,-0.618652,-0.760742
-0.0161743,-0.61853,-0.759888
-0.0157471,-0.618225,-0.757568
-0.0151978,-0.618286,-0.757812
-0.0147095,-0.617981,-0.760376
-0.0150146,-0.617188,-0.761353
-0.0164795,-0.618774,-0.76062
-0.0151367,-0.618774,-0.756287
-0.0145264,-0.61731,-0.758667
-0.0153809,-0.618103,-0.757324
-0.0176392,-0.618042,-0.759583
-0.0159302,-0.617859,-0.757446
-0.0148926,-0.61969,-0.757935
-0.0162354,-0.61853,-0.757385
-0.0170288,-0.618042,-0.761536
-0.0135498,-0.617493,-0.762451
-0.0136719,-0.619263,-0.76001
-0.0140381,-0.618164,-0.75647
-0.0141602,-0.618225,-0.755798
-0.0177002,-0.617249,-0.75769
-0.0150757,-0.61853,-0.760864
-0.0171509,-0.620544,-0.759033
-0.0159302,-0.618896,-0.759277
-0.031189,-0.622253,-0.758423
-0.0148926,-0.618835,-0.760803
-0.0162964,-0.616089,-0.761597
-0.0144653,-0.619019,-0.760071
-0.0172729,-0.620544,-0.754395
-0.0172729,-0.618225,-0.75647
-0.015564,-0.617371,-0.760193
-0.015564,-0.617126,-0.761353
-0.0148926,-0.61908,-0.758545
-0.0306396,-0.621643,-0.758728
-0.0172729,-0.618652,-0.757935
-0.0161133,-0.616821,-0.761047
-0.0170288,-0.616577,-0.759766
-0.0119629,-0.619324,-0.755981
-0.0147705,-0.61908,-0.757385
-0.0159302,-0.618896,-0.762085
-0.0158081,-0.617798,-0.760315
-0.0180664,-0.619263,-0.759094
-0.0140991,-0.621826,-0.755249
-0.0169678,-0.620117,-0.755554
-0.015564,-0.619141,-0.757446
-0.0148926,-0.618164,-0.759521
-0.0145874,-0.619873,-0.75885
-0.0170898,-0.621216,-0.756592
-0.0146484,-0.618713,-0.757568
-0.0178223,-0.617188,-0.759766
-0.0133667,-0.615662,-0.758301
-0.0177612,-0.619568,-0.759399
-0.0144653,-0.620728,-0.757935
-0.0157471,-0.61908,-0.75824
-0.0146484,-0.617676,-0.762939
-0.0180664,-0.616516,-0.760254
-0.015625,-0.618713,-0.758362
-0.0153198,-0.621033,-0.755432
-0.0166016,-0.618835,-0.759766
-0.0145874,-0.61676,-0.759583
-0.0165405,-0.619263,-0.758728
-0.0166626,-0.620728,-0.759705
-0.0158081,-0.619507,-0.759705
-0.013916,-0.617554,-0.754822
-0.0159302,-0.619202,-0.757446
-0.0165405,-0.619202,-0.757812
-0.0150146,-0.620483,-0.761169
-0.0184326,-0.621155,-0.76001
-0.0151367,-0.618774,-0.758362
-0.0172729,-0.619385,-0.758423
-0.0152588,-0.618103,-0.758911
-0.015625,-0.617676,-0.75824
-0.0150757,-0.618347,-0.757446
-0.0161743,-0.735535,-0.64978
-0.0134888,-0.736877,-0.647034
-0.0165405,-0.73645,-0.649414
-0.0128174,-0.734985,-0.652588
-0.0158691,-0.735168,-0.651489
-0.0172119,-0.738098,-0.646912
-0.0136108,-0.737305,-0.647095
-0.0153809,-0.734741,-0.646606
-0.0133667,-0.735962,-0.649902
-0.0147705,-0.737183,-0.647522
-0.0170898,-0.734497,-0.649414
-0.0197754,-0.73645,-0.64917
-0.013855,-0.735962,-0.64856
-0.015564,-0.749451,-0.650452
-0.000732422,-0.735535,-0.646545
-0.0158691,-0.736633,-0.646423
-0.0137329,-0.736572,-0.647766
-0.0133057,-0.73407,-0.647583
-0.0157471,-0.734497,-0.64978
-0.0151978,-0.737183,-0.647095
-0.0145874,-0.736816,-0.64624
-0.0131836,-0.734436,-0.648499
-0.0142212,-0.749268,-0.648743
-0.0291138,-0.734924,-0.645874
-0.0155029,-0.736633,-0.645996
-0.0145264,-0.735596,-0.649536
-0.0126953,-0.737183,-0.650513
-0.0150757,-0.736206,-0.652283
-0.0143433,-0.737732,-0.647156
-0.0140991,-0.735779,-0.649048
-0.0131836,-0.736755,-0.647156
-0.0305176,-0.734009,-0.64801
-0.0302734,-0.736084,-0.647583
-0.0147095,-0.734375,-0.646301
-0.0133667,-0.733826,-0.649414
-0.015564,-0.735962,-0.648682
-0.0153809,-0.73761,-0.647156
-0.0133057,-0.733337,-0.649475
-0.0151367,-0.737244,-0.647461
-0.0303345,-0.733765,-0.645142
-0.0166626,-0.735474,-0.645447
-0.0162354,-0.733887,-0.650269
-0.0150757,-0.735291,-0.650391
-0.0114746,-0.736816,-0.647461
-0.0152588,-0.735229,-0.645264
-0.0158691,-0.734924,-0.646545
-0.0174561,-0.736572,-0.64917
-0.0140991,-0.736206,-0.64917
-0.0162964,-0.735901,-0.648682
-0.0147095,-0.736206,-0.651306
-0.0154419,-0.736206,-0.64801
-0.0144043,-0.736206,-0.647217
-0.000793457,-0.73761,-0.645874
-0.0136108,-0.73645,-0.645752
-0.0170288,-0.736328,-0.64801
-0.0148315,-0.734009,-0.649292
-0.0143433,-0.736511,-0.651611
-0.0143433,-0.73645,-0.64917
-0.0146484,-0.737,-0.643921
-0.0147705,-0.733459,-0.648071
-0.0172119,-0.73468,-0.648193
-0.0122681,-0.736633,-0.647705
-0.0137329,-0.737854,-0.647705
-0.0153198,-0.734985,-0.648071
-0.0150146,-0.736084,-0.648499
-0.0155029,-0.73645,-0.649841
-0.013855,-0.736511,-0.64856
-0.0139771,-0.739441,-0.645996
-0.013916,-0.738892,-0.643066
-0.013855,-0.735718,-0.646606
-0.0134888,-0.736145,-0.649231
-0.0153809,-0.73645,-0.649475
-0.0157471,-0.737183,-0.647217
-0.0136108,-0.737427,-0.646973
-0.0159302,-0.735229,-0.649475
-0.0137329,-0.736694,-0.648254
-0.0143433,-0.736572,-0.646851
-0.013916,-0.737183,-0.646973
-0.0140991,-0.737671,-0.647827
-0.0153809,-0.730835,-0.650696
-0.0148926,-0.734253,-0.650024
-0.0186768,-0.73822,-0.650146
-0.0168457,-0.736572,-0.645447
-0.0148315,-0.735657,-0.647339
-0.0185547,-0.734375,-0.650146
-0.0141602,-0.734802,-0.649048
-0.0158081,-0.736511,-0.647461
-0.0303955,-0.739441,-0.646484
-0.0147095,-0.733276,-0.646484
-0.0168457,-0.735291,-0.651672
-0.0144653,-0.734558,-0.651611
-0.0147095,-0.737305,-0.647827
-0.0176392,-0.735962,-0.64502
-0.0148315,-0.735962,-0.647522
-0.0140991,-0.737,-0.647766
-0.0128784,-0.734741,-0.647095
-0.0147705,-0.736267,-0.64917
-0.0149536,-0.736816,-0.64856
-0.0150757,-0.735413,-0.64856
-0.0182495,-0.733398,-0.652222
-0.0144653,-0.837524,-0.517151
-0.0294189,-0.836304,-0.516113
-0.0150757,-0.834717,-0.515442
-0.0151978,-0.836792,-0.512207
-0.0162964,-0.839661,-0.512573
-0.0155029,-0.838867,-0.515076
-0.0125732,-0.838623,-0.513306
-0.0159302,-0.835693,-0.530823
-0.0140991,-0.839905,-0.514099
-0.0161743,-0.837646,-0.513306
-0.0112915,-0.838135,-0.512024
-0.0110474,-0.836487,-0.510925
-0.0162354,-0.838806,-0.511902
-0.0164795,-0.836243,-0.514771
-0.0133057,-0.836426,-0.513977
-0.0135498,-0.835632,-0.500488
-0.0170288,-0.833862,-0.515564
-0.0158081,-0.836792,-0.515625
-0.012146,-0.837036,-0.512512
-0.0147705,-0.839172,-0.511475
-0.0130005,-0.839355,-0.509949
-0.0120239,-0.838013,-0.511719
-0.0137939,-0.836975,-0.515015
-0.0167236,-0.836792,-0.515442
-0.0144043,-0.836304,-0.512878
-0.0137939,-0.836792,-0.515137
-0.0150146,-0.83728,-0.512817
-0.0310059,-0.837769,-0.512939
-0.0141602,-0.837585,-0.513306
-0.0126953,-0.836853,-0.514282
-0.0132446,-0.836487,-0.514771
-0.0166626,-0.837158,-0.514282
-0.0134277,-0.837769,-0.515808
-0.0150146,-0.83728,-0.515259
-0.0168457,-0.835938,-0.514648
-0.0154419,-0.839355,-0.513672
-0.0149536,-0.838562,-0.513611
-0.0128174,-0.837158,-0.514038
-0.0153809,-0.83728,-0.513916
-0.0186768,-0.834961,-0.512573
-0.0146484,-0.836914,-0.512573
-0.0140991,-0.838318,-0.51532
-0.0170898,-0.836548,-0.515076
-0.0170898,-0.837646,-0.512939
-0.0141602,-0.839172,-0.513733
-0.0147705,-0.838196,-0.513611
-0.0145874,-0.837585,-0.514038
-0.0130005,-0.838135,-0.512634
-0.0152588,-0.836548,-0.512756
-0.0148315,-0.838684,-0.512817
-0.0140381,-0.837036,-0.513672
-0.0148315,-0.837158,-0.515503
-0.0167236,-0.837036,-0.514587
-0.0135498,-0.836426,-0.514099
-0.013916,-0.838379,-0.514526
-0.0150757,-0.839172,-0.514404
-0.0157471,-0.837158,-0.512817
-0.0124512,-0.83844,-0.513062
-0.0164795,-0.838196,-0.515259
-0.00177002,-0.836304,-0.51593
-0.0150146,-0.837524,-0.515076
-0.0145874,-0.835876,-0.529541
-0.0141602,-0.836548,-0.514343
-0.0166016,-0.837219,-0.514709
-0.0155029,-0.838867,-0.510864
-0.0144653,-0.836853,-0.513184
-0.012085,-0.835815,-0.513916
-0.0133057,-0.839783,-0.516113
-0.0147705,-0.833679,-0.512024
-0.0153198,-0.834778,-0.516724
-0.0148926,-0.835876,-0.513306
-0.0150146,-0.839294,-0.512024
-0.0151978,-0.838318,-0.510925
-0.0145264,-0.839172,-0.512695
-0.0151978,-0.838867,-0.513611
-0.0149536,-0.835815,-0.516174
-0.0136108,-0.836426,-0.51709
-0.0161133,-0.838196,-0.512695
-0.015625,-0.836975,-0.515747
-0.0151367,-0.838318,-0.516296
-0.0147705,-0.83429,-0.517883
-0.0129395,-0.836487,-0.513916
-0.0130005,-0.835144,-0.511414
-0.0152588,-0.83905,-0.51178
-0.012085,-0.840942,-0.51239
-0.0123291,-0.838501,-0.513367
-0.0178833,-0.838074,-0.514282
-0.0154419,-0.834778,-0.513367
-0.0127563,-0.839294,-0.516846
-0.0171509,-0.835999,-0.512695
-0.0157471,-0.839233,-0.516052
-0.000305176,-0.839111,-0.511597
-0.0134277,-0.838806,-0.512329
-0.0151978,-0.837769,-0.514099
-0.0155029,-0.83551,-0.515381
-0.000549316,-0.837891,-0.512756
-0.0158081,-0.836548,-0.514648
-0.0158691,-0.8396,-0.529846
-0.0148926,-0.837952,-0.516357
-0.0123291,-0.836548,-0.515869
-0.0132446,-0.892395,-0.411255
-0.0148315,-0.895996,-0.411438
-0.0166626,-0.893433,-0.410156
-0.0146484,-0.892944,-0.407288
-0.0159912,-0.893677,-0.407043
-0.0144653,-0.893799,-0.411865
-0.013855,-0.893738,-0.411011
-0.0150146,-0.892639,-0.409546
-0.0147705,-0.892456,-0.410828
-0.015625,-0.895996,-0.410034
-0.0131836,-0.894409,-0.408203
-0.0154419,-0.894714,-0.407776
-0.0159302,-0.895874,-0.411316
-0.013916,-0.894287,-0.410156
-0.0128174,-0.894043,-0.410156
-0.0123901,-0.893555,-0.411316
-0.0139771,-0.894897,-0.409912
-0.0171509,-0.894897,-0.409546
-0.0168457,-0.895813,-0.410889
-0.0123901,-0.891602,-0.410706
-0.0126343,-0.892212,-0.411072
-0.015686,-0.893433,-0.411865
-0.0136719,-0.893799,-0.41095
-0.0132446,-0.894043,-0.409912
-0.0147705,-0.893311,-0.410461
-0.0150146,-0.893494,-0.411438
-0.0149536,-0.893372,-0.413147
-0.0012207,-0.891968,-0.413757
-0.0148926,-0.893005,-0.410156
-0.015686,-0.894409,-0.408081
-0.0141602,-0.8927,-0.410706
-0.0134888,-0.895935,-0.408936
-0.0145874,-0.893372,-0.410217
-0.0128784,-0.894775,-0.410645
-0.0144653,-0.894287,-0.410889
-0.0112915,-0.893311,-0.41156
-0.0154419,-0.891357,-0.412231
-0.0140991,-0.891235,-0.412048
-0.0142822,-0.894287,-0.410217
-0.0144653,-0.895569,-0.408875
-0.012085,-0.896362,-0.40863
-0.0150757,-0.893494,-0.411865
-0.0135498,-0.8927,-0.412476
-0.0152588,-0.892639,-0.41156
-0.015686,-0.894226,-0.411194
-0.0154419,-0.894531,-0.409729
-0.0146484,-0.894165,-0.409851
-0.0130615,-0.895874,-0.41272
-0.0145264,-0.894043,-0.412415
-0.0157471,-0.894043,-0.410095
-0.0140991,-0.896118,-0.407654
-0.0149536,-0.893127,-0.411499
-0.0133667,-0.892578,-0.411194
-0.0150757,-0.894897,-0.413025
-0.0151978,-0.893433,-0.41217
-0.0157471,-0.894409,-0.410767
-0.0130005,-0.896301,-0.409851
-0.0155029,-0.893066,-0.409058
-0.0177612,-0.895569,-0.412109
-0.0169678,-0.894531,-0.410645
-0.0136719,-0.893494,-0.413452
-0.0125732,-0.891541,-0.41333
-0.0159302,-0.893616,-0.411194
-0.0151367,-0.897034,-0.408997
-0.015625,-0.893799,-0.411804
-0.0155029,-0.893555,-0.413757
-0.0141602,-0.893188,-0.412231
-0.0167236,-0.895447,-0.409302
-0.0151978,-0.896362,-0.410522
-0.013855,-0.894348,-0.41272
-0.0152588,-0.895447,-0.410645
-0.0149536,-0.891235,-0.416565
-0.0159912,-0.891052,-0.412842
-0.0123901,-0.895081,-0.409546
-0.0149536,-0.895081,-0.410095
-0.013855,-0.894348,-0.407776
-0.010376,-0.894653,-0.413452
-0.013855,-0.892334,-0.410156
-0.0158691,-0.893677,-0.413574
-0.0145874,-0.893433,-0.411621
-0.013855,-0.895874,-0.409424
-0.0130005,-0.892578,-0.410706
-0.0300293,-0.8927,-0.411255
-0.0164795,-0.894287,-0.410828
-0.0140381,-0.893555,-0.410645
-0.0144653,-0.894287,-0.413513
-0.0159912,-0.893982,-0.412598
-0.0143433,-0.897949,-0.408752
-0.00012207,-0.894287,-0.410828
-0.0161133,-0.892029,-0.411377
-0.0169067,-0.89093,-0.412598
-0.0155029,-0.892517,-0.41217
-0.0159912,-0.894165,-0.408264
-0.0136719,-0.893433,-0.40979
-0.0109253,-0.894775,-0.411194
-0.0136719,-0.894897,-0.411011
-0.0171509,-0.890869,-0.412781
-0.012085,-0.89093,-0.411743
-0.0137939,-0.894775,-0.412109
-0.0146484,-0.895264,-0.409302
-0.0245361,-0.991089,0.0115356
-0.0233154,-0.991943,0.00994873
-0.0217285,-0.993774,0.00817871
-0.0209351,-0.989258,0.00964355
-0.0205078,-0.98877,0.0098877
-0.019104,-0.988708,0.0100708
-0.0182495,-0.98938,0.00854492
-0.0177002,-0.989807,0.00878906
-0.0186157,-0.98938,0.0088501
-0.0198975,-0.991333,0.0111084
-0.0206909,-0.989502,0.0103149
-0.0255127,-0.991394,0.0112915
-0.0249023,-0.990051,0.0088501
-0.0232544,-0.989136,0.00982666
-0.0249634,-0.987915,0.0106201
-0.0247192,-0.989746,0.00872803
-0.0236816,-0.988525,0.0090332
-0.0230713,-0.988037,0.00958252
-0.0195923,-0.987305,0.0101929
-0.0202637,-0.988037,0.0088501
-0.0178223,-0.98761,0.00982666
-0.0163574,-0.989319,0.00720215
-0.0194092,-0.988953,0.0108032
-0.0206299,-0.990784,0.00750732
-0.0195312,-0.989929,0.00866699
-0.0223999,-0.990662,0.00823975
-0.0264893,-0.991577,0.0111084
-0.0250854,-0.989136,0.00897217
-0.0291748,-0.990234,0.00994873
-0.0262451,-0.991882,0.00970459
-0.0289917,-0.992798,0.00750732
-0.026062,-0.989868,0.00964355
-0.0256958,-0.990723,0.00689697
-0.0219116,-0.988647,0.00933838
-0.0212402,-0.988159,0.00891113
-0.0202026,-0.990051,0.00579834
-0.0189819,-0.989014,0.0108643
-0.0133057,-0.988953,0.0115356
-0.0164795,-0.988892,0.0106812
-0.0145874,-0.989441,0.00787354
-0.0161133,-0.990662,0.00787354
-0.0185547,-0.989319,0.00689697
-0.0181274,-0.989197,0.0101929
-0.0209961,-0.990967,0.0100098
-0.0228271,-0.991333,0.0118408
-0.0239258,-0.990845,0.0116577
-0.0250244,-0.989868,0.0112915
-0.0292358,-0.993286,0.0126343
-0.0261841,-0.992249,0.012085
-0.026123,-0.989685,0.0115967
-0.0258789,-0.990356,0.0101929
-0.024231,-0.989502,0.010376
-0.0221558,-0.988831,0.00915527
-0.0220947,-0.988342,0.00762939
-0.020752,-0.989136,0.00933838
-0.0175171,-0.989197,0.0090332
-0.0181885,-0.988892,0.00891113
-0.0196533,-0.983459,0.00793457
-0.015625,-0.991089,0.00775146
-0.0186768,-0.990295,0.0113525
-0.0170288,-0.991821,0.0113525
-0.0150146,-0.991089,0.0113525
-0.0175171,-0.989624,0.00811768
-0.0228882,-0.989807,0.010437
-0.0258179,-0.989929,0.00549316
-0.0269165,-0.988037,0.00665283
-0.0267944,-0.987732,0.00830078
-0.0272217,-0.990723,0.00775146
-0.0285034,-0.990845,0.00610352
-0.0289917,-0.988586,0.012207
-0.0264893,-0.987976,0.00762939
-0.0257568,-0.988708,0.00512695
-0.0205078,-0.988464,0.00262451
-0.0177002,-0.988037,0.00817871
-0.0164185,-0.98645,0.0043335
-0.0170288,-0.987305,0.00439453
-0.0178833,-0.988892,0.00567627
-0.0166626,-0.986145,0.00604248
-0.015625,-0.987915,0.00799561
-0.0212402,-0.989014,0.00775146
-0.022644,-0.989502,0.00646973
-0.0244751,-0.989746,0.0115967
-0.0239258,-0.989746,0.00714111
-0.026062,-0.991333,0.00970459
-0.0256958,-0.989319,0.0110474
-0.0251465,-0.990601,0.00952148
-0.026001,-0.988403,0.00921631
-0.0248413,-0.990234,0.0103149
-0.0250244,-0.99231,0.0088501
-0.0215454,-0.989807,0.00939941
-0.0219727,-0.990784,0.00982666
-0.0214233,-0.990967,0.00750732
-0.0230103,-0.991028,0.0100098
-0.0214233,-0.989624,0.0102539
-0.0221558,-0.988831,0.00933838
-0.0220337,-0.990662,0.00665283
-0.0228271,-0.988892,0.00695801
-0.0240479,-0.992004,0.00518799
-0.0229492,-0.98938,0.0078125
-0.0206299,-0.990051,0.00909424
-0.0679932,-0.875183,0.47229
-0.0651855,-0.878723,0.473145
-0.0656128,-0.881592,0.470093
-0.0646973,-0.881897,0.465942
-0.0666504,-0.879944,0.466248
-0.0698242,-0.878906,0.466675
-0.0681763,-0.878662,0.465393
-0.0671997,-0.874023,0.467163
-0.0651855,-0.875793,0.468872
-0.0636597,-0.877869,0.471008
-0.059082,-0.880676,0.471619
-0.0609741,-0.878174,0.469666
-0.0631104,-0.875,0.46991
-0.0658569,-0.888672,0.466614
-0.0644531,-0.873047,0.463196
-0.0633545,-0.872253,0.462891
-0.0630493,-0.876648,0.463806
-0.0631714,-0.879883,0.463745
-0.0599365,-0.884033,0.465698
-0.0601807,-0.879944,0.465393
-0.0614014,-0.87738,0.466736
-0.0631104,-0.875793,0.469666
-0.0641479,-0.875122,0.468201
-0.0644531,-0.881226,0.467896
-0.0653687,-0.880981,0.466431
-0.0622559,-0.8797,0.468811
-0.0613403,-0.879517,0.469482
-0.0629272,-0.876892,0.471008
-0.0641479,-0.876831,0.474548
-0.0670166,-0.876099,0.46991
-0.0671997,-0.877197,0.468506
-0.0685425,-0.874573,0.483948
-0.067749,-0.871826,0.466858
-0.071167,-0.875122,0.465088
-0.0705566,-0.874817,0.463013
-0.0670166,-0.881348,0.463623
-0.0639648,-0.880737,0.464661
-0.0662842,-0.88269,0.466919
-0.067688,-0.879333,0.469666
-0.071106,-0.859497,0.467896
-0.0715332,-0.872314,0.468811
-0.0697021,-0.873169,0.469177
-0.0680542,-0.877441,0.46814
-0.0649414,-0.878052,0.468201
-0.0654907,-0.88147,0.468506
-0.0635986,-0.878662,0.468872
-0.0650635,-0.878296,0.472961
-0.0630493,-0.877258,0.466614
-0.0633545,-0.87854,0.467529
-0.0605469,-0.873047,0.467346
-0.059082,-0.874878,0.470154
-0.0611572,-0.876709,0.467957
-0.0637207,-0.875549,0.464539
-0.0632935,-0.877563,0.465149
-0.0621948,-0.880127,0.461182
-0.0631714,-0.87854,0.461243
-0.0651245,-0.877502,0.46167
-0.0664673,-0.874634,0.463745
-0.0675049,-0.874939,0.464111
-0.0697632,-0.875,0.469666
-0.0672607,-0.874329,0.471313
-0.0646362,-0.877563,0.472412
-0.0643921,-0.879761,0.472595
-0.0648193,-0.881226,0.470764
-0.064209,-0.879639,0.467896
-0.0668335,-0.880249,0.467407
-0.0723267,-0.879944,0.470825
-0.0741577,-0.880676,0.47229
-0.0742798,-0.88031,0.473999
-0.0721436,-0.882385,0.47168
-0.0665283,-0.884644,0.469482
-0.0667114,-0.884033,0.468872
-0.065918,-0.878723,0.46759
-0.0667725,-0.872742,0.467041
-0.0666504,-0.868225,0.465698
-0.0646973,-0.868713,0.464233
-0.0594482,-0.869202,0.46698
-0.0581665,-0.874146,0.463501
-0.0521851,-0.874268,0.464294
-0.0552979,-0.876648,0.466614
-0.0610962,-0.873657,0.467346
-0.0690918,-0.869812,0.471069
-0.0739136,-0.869873,0.467041
-0.0723877,-0.87085,0.466492
-0.0701294,-0.876587,0.467773
-0.0682373,-0.880371,0.464905
-0.0617676,-0.887207,0.466553
-0.0654907,-0.895203,0.467896
-0.0687866,-0.890259,0.46875
-0.0723877,-0.881775,0.471252
-0.0762329,-0.872681,0.47168
-0.0774536,-0.868896,0.467773
-0.0737915,-0.871277,0.469543
-0.0650024,-0.879456,0.465881
-0.0588989,-0.880615,0.466675
-0.059021,-0.881958,0.46759
-0.0581055,-0.875549,0.469604
-0.0602417,-0.871399,0.468567
-0.0603638,-0.86853,0.468445
-0.059021,-0.872009,0.470947
0.00439453,-0.717285,0.707764
0.00500488,-0.717224,0.708069
0.00994873,-0.713989,0.704895
0.0170898,-0.71051,0.703796
0.0172729,-0.703552,0.707031
0.0227661,-0.701294,0.704956
0.0184326,-0.701172,0.70459
0.019165,-0.7052,0.718262
0.0222168,-0.709717,0.701599
0.0177002,-0.712708,0.70166
0.0168457,-0.712158,0.701904
0.0145874,-0.712585,0.698853
0.0136719,-0.71582,0.698914
0.0136108,-0.711609,0.700989
0.0144043,-0.712769,0.70343
0.00952148,-0.711975,0.704956
0.00897217,-0.713501,0.706177
0.00561523,-0.712402,0.703674
0.00463867,-0.710999,0.70343
0.00360107,-0.709839,0.703979
0.00732422,-0.706909,0.705322
0.00970459,-0.706909,0.703918
0.0101318,-0.712769,0.703064
0.00964355,-0.714111,0.71875
0.0132446,-0.713867,0.70166
0.0150146,-0.713501,0.705322
0.015564,-0.714294,0.704224
0.0308838,-0.712158,0.703735
0.0176392,-0.708496,0.704651
0.017334,-0.70636,0.706421
0.0137939,-0.707153,0.705811
0.0132446,-0.706909,0.70343
0.0101929,-0.708069,0.701355
0.0102539,-0.709595,0.702698
0.00927734,-0.710815,0.702698
0.0105591,-0.712097,0.70813
0.0106201,-0.711853,0.70752
0.00927734,-0.718262,0.705994
0.0137939,-0.717407,0.703125
0.0116577,-0.711792,0.703491
0.0123901,-0.710327,0.699768
0.0127563,-0.708618,0.7005
0.0135498,-0.707642,0.700073
0.0101929,-0.70874,0.703491
0.00915527,-0.70874,0.70459
0.0067749,-0.71228,0.705872
0.00823975,-0.715393,0.70636
0.010376,-0.714905,0.705811
0.0102539,-0.712219,0.705994
0.00805664,-0.705688,0.704712
0.0100098,-0.701904,0.703003
0.0103149,-0.703979,0.701111
0.0098877,-0.706543,0.699402
0.00952148,-0.710999,0.696899
0.0113525,-0.710571,0.697937
0.0114136,-0.709778,0.698853
0.0139771,-0.708496,0.700684
0.0132446,-0.706787,0.704773
0.0128784,-0.708862,0.704651
0.0124512,-0.718323,0.707275
0.0140991,-0.723267,0.704773
0.0125122,-0.722351,0.707214
0.0109253,-0.718872,0.707397
0.0146484,-0.709839,0.707886
0.0161133,-0.708923,0.704834
0.0178833,-0.708069,0.701782
0.0167236,-0.708252,0.702881
0.0140381,-0.708557,0.70459
0.0115967,-0.71051,0.707458
0.0109863,-0.706909,0.704529
0.0123291,-0.706421,0.70575
0.012207,-0.705017,0.704346
0.0120239,-0.704529,0.702515
0.0126953,-0.705811,0.702209
0.0106812,-0.712036,0.699768
0.0131836,-0.718933,0.698364
0.0142822,-0.723755,0.703369
0.0142822,-0.726379,0.708191
0.00952148,-0.723022,0.711365
0.00811768,-0.718445,0.708374
0.00701904,-0.712952,0.706543
0.010498,-0.707825,0.687988
0.0106812,-0.701111,0.69812
0.0109863,-0.696289,0.695801
0.0148926,-0.694702,0.697876
0.0126953,-0.697021,0.696716
0.0136719,-0.708923,0.696289
0.0147705,-0.717346,0.699524
0.0126343,-0.726501,0.705627
0.0115356,-0.724731,0.707703
0.00994873,-0.723328,0.709473
0.010376,-0.716187,0.707764
0.0116577,-0.707031,0.703247
0.0163574,-0.702637,0.703735
0.0184937,-0.700195,0.703857
0.019165,-0.697998,0.699463
0.0150146,-0.70459,0.698853
0.0108032,-0.710815,0.696533
0.010437,-0.717651,0.699341
0.00927734,-0.717407,0.701355
0.00488281,-0.56781,0.823425
0.00280762,-0.566711,0.821106
0.00622559,-0.566101,0.825745
0.00494385,-0.565796,0.828735
0.00653076,-0.564941,0.824707
0.00622559,-0.564453,0.842773
0.00830078,-0.56665,0.82489
0.0100098,-0.567932,0.824585
0.012146,-0.565796,0.825317
0.0139771,-0.5672,0.826538
0.0135498,-0.571106,0.82666
0.0148315,-0.569946,0.82428
0.0128174,-0.571045,0.825562
0.0137329,-0.574524,0.832214
0.0148926,-0.574829,0.833374
0.0150146,-0.575989,0.835815
0.0124512,-0.570984,0.836731
0.0125732,-0.568542,0.835144
0.00585938,-0.566162,0.828796
0.00842285,-0.565674,0.829285
0.00891113,-0.562927,0.828186
0.00518799,-0.561096,0.824097
0.00567627,-0.563599,0.824829
0.00683594,-0.56488,0.821228
0.00708008,-0.567261,0.820618
0.00622559,-0.566895,0.817261
0.00762939,-0.5672,0.817749
0.00891113,-0.570801,0.820129
0.00848389,-0.575562,0.824646
0.0148315,-0.590881,0.830139
0.012146,-0.578857,0.83551
0.0119019,-0.576843,0.835938
0.00823975,-0.57251,0.83252
0.00518799,-0.568726,0.831787
0.00720215,-0.559814,0.82666
0.00524902,-0.554382,0.822205
0.00646973,-0.551392,0.822815
0.00598145,-0.557434,0.821045
0.00854492,-0.565002,0.82251
0.00964355,-0.574219,0.828979
0.0105591,-0.577698,0.8302
0.0065918,-0.579712,0.831421
0.003479,-0.578796,0.829834
0.00793457,-0.569946,0.826538
0.0119019,-0.564636,0.822571
0.0115967,-0.56012,0.819214
0.0128784,-0.558289,0.820068
0.00915527,-0.55957,0.816956
0.00872803,-0.564941,0.814209
0.00848389,-0.566833,0.815186
0.00964355,-0.56488,0.819885
0.00817871,-0.564575,0.821472
0.00598145,-0.568054,0.823608
0.00146484,-0.569702,0.825317
0.00531006,-0.575684,0.831421
0.00714111,-0.576416,0.833679
0.00787354,-0.575256,0.832031
0.00915527,-0.573242,0.832886
0.0151367,-0.567444,0.835205
0.020752,-0.56665,0.831726
0.0209961,-0.563232,0.830933
0.0214233,-0.562866,0.831177
0.0176392,-0.564819,0.831177
0.0164795,-0.566589,0.828125
0.0140991,-0.566223,0.825012
0.0105591,-0.568909,0.82605
0.00616455,-0.568481,0.82135
0.0020752,-0.568359,0.820496
0.0022583,-0.568726,0.8255
0.00256348,-0.569092,0.826904
-0.00012207,-0.567688,0.825562
0.0055542,-0.566895,0.826294
0.00634766,-0.548218,0.824463
0.00866699,-0.563599,0.822205
0.0109253,-0.567444,0.821167
0.0130615,-0.569702,0.825256
0.0174561,-0.57196,0.827881
0.0196533,-0.574585,0.829041
0.0180664,-0.573547,0.829956
0.0150146,-0.572144,0.828369
0.0117188,-0.569763,0.824097
0.0124512,-0.565613,0.824646
0.00994873,-0.565186,0.824768
0.00909424,-0.566101,0.823608
0.00787354,-0.566833,0.82373
0.00317383,-0.57135,0.821594
0.000549316,-0.568359,0.818298
0.00427246,-0.564087,0.81842
0.00262451,-0.557617,0.820435
0.00244141,-0.556946,0.824097
0.00482178,-0.5578,0.823425
0.00701904,-0.56012,0.825012
0.00714111,-0.565369,0.827698
0.0127563,-0.567322,0.84375
0.0112305,-0.571106,0.828857
0.0134277,-0.573242,0.829102
0.0124512,-0.572083,0.827271
0.0140991,-0.574341,0.830017
0.0131836,-0.572815,0.830566
0.0114746,-0.57251,0.82666
-0.0125732,-0.417664,0.913879
-0.0171509,-0.426941,0.917603
-0.00958252,-0.425171,0.911743
-0.024292,-0.424927,0.91803
-0.0123901,-0.422913,0.921204
-0.0101929,-0.420227,0.919617
-0.00866699,-0.420227,0.929138
-0.00543213,-0.414185,0.92981
-0.00720215,-0.414978,0.925964
-0.00183105,-0.415649,0.924133
-0.00164795,-0.413452,0.922852
-0.000366211,-0.40979,0.922302
-0.000427246,-0.411682,0.923889
-0.00152588,-0.413452,0.920654
-0.0022583,-0.416016,0.920166
-0.000854492,-0.417542,0.92572
-0.00195312,-0.419128,0.924072
-0.0020752,-0.418457,0.922546
-0.00579834,-0.418396,0.920715
-0.0078125,-0.416809,0.918091
-0.00701904,-0.413147,0.914062
-0.00866699,-0.410889,0.910767
-0.00732422,-0.404785,0.90979
-0.00469971,-0.407654,0.910278
-0.00842285,-0.412476,0.910583
-0.0111694,-0.417786,0.914368
-0.013916,-0.424622,0.919128
-0.0165405,-0.429443,0.924622
-0.0180054,-0.433289,0.92218
-0.0172119,-0.431274,0.917664
-0.0164795,-0.429688,0.918213
-0.00994873,-0.421997,0.914429
-0.00799561,-0.411743,0.910278
-0.00756836,-0.419189,0.910645
-0.00848389,-0.40332,0.907349
-0.00769043,-0.402405,0.907593
-0.00317383,-0.401306,0.91156
-0.00366211,-0.404907,0.915161
-0.00219727,-0.405273,0.920044
-0.0057373,-0.409729,0.92334
-0.00799561,-0.414795,0.923584
-0.0101929,-0.419983,0.919617
-0.0108032,-0.418579,0.917603
-0.0125122,-0.417419,0.915222
-0.00701904,-0.418274,0.917358
-0.00830078,-0.425171,0.914124
-0.00518799,-0.429932,0.922241
-0.003479,-0.42749,0.925903
-0.00506592,-0.425354,0.930542
-0.00689697,-0.423523,0.932373
-0.00872803,-0.420288,0.926758
-0.0100708,-0.416382,0.921814
-0.00628662,-0.411865,0.920166
-0.00549316,-0.408081,0.91864
-0.00549316,-0.408203,0.916626
-0.00921631,-0.410767,0.914856
-0.0106812,-0.414795,0.915894
-0.0105591,-0.417114,0.911255
-0.0136719,-0.41864,0.911316
-0.0115967,-0.420044,0.91449
-0.00891113,-0.41626,0.912354
-0.00811768,-0.412354,0.910461
-0.00848389,-0.40979,0.910889
-0.00421143,-0.410156,0.911499
-0.00115967,-0.413208,0.916748
-0.00280762,-0.417053,0.921997
-0.00756836,-0.416321,0.927917
-0.00634766,-0.417419,0.933167
-0.0106201,-0.418396,0.92804
-0.013855,-0.417603,0.926453
-0.0140381,-0.418213,0.921021
-0.0114136,-0.414856,0.917725
-0.00976562,-0.411743,0.918457
-0.0134888,-0.406677,0.911438
-0.0127563,-0.404541,0.910034
-0.0124512,-0.403809,0.903076
-0.00793457,-0.408081,0.906921
-0.0067749,-0.418213,0.906006
-0.00726318,-0.423096,0.909302
-0.00653076,-0.4245,0.918213
-0.00585938,-0.425781,0.92395
-0.00653076,-0.427856,0.925537
-0.00549316,-0.426392,0.924683
-0.00628662,-0.419617,0.927429
-0.00140381,-0.414856,0.924744
-0.00140381,-0.40979,0.926025
-0.00280762,-0.407043,0.92218
-0.00457764,-0.405029,0.919373
-0.00769043,-0.405396,0.916504
-0.0090332,-0.409485,0.91748
-0.0114136,-0.415466,0.915161
-0.0123291,-0.421692,0.917664
-0.0129395,-0.42218,0.917847
-0.00927734,-0.425415,0.918762
-0.0100708,-0.425232,0.919434
-0.00866699,-0.415405,0.921265
-0.00817871,-0.408203,0.922241
-0.00878906,-0.407593,0.920898
-0.00524902,-0.408447,0.918762
-0.00335693,-0.410339,0.921387
-0.0292358,-0.079895,1.00726
-0.0270996,-0.09021,1.00836
-0.0272217,-0.0912476,1.00964
-0.0291748,-0.0899658,1.01025
-0.0296631,-0.088623,1.0119
-0.0460815,-0.090332,1.00854
-0.036499,-0.0898438,1.00116
-0.0366211,-0.0865479,0.997192
-0.038147,-0.0869751,0.996582
-0.0355225,-0.0846558,0.994995
-0.0365601,-0.0930786,0.995789
-0.0318604,-0.101196,1.00122
-0.0258179,-0.106262,1.01599
-0.0221558,-0.107544,1.02368
-0.0238037,-0.10553,1.02582
-0.027771,-0.104797,1.02087
-0.0293579,-0.100769,1.01697
-0.0298462,-0.0969238,1.00879
-0.0299683,-0.0889282,1.00952
-0.0304565,-0.0830078,1.00684
-0.0297241,-0.0768433,1.00555
-0.0302124,-0.0767822,1.00623
-0.015686,-0.0841064,1.00476
-0.0272827,-0.0906982,1.00769
-0.0283203,-0.0971069,1.01471
-0.0261841,-0.0992432,1.01636
-0.0248413,-0.0995483,1.01575
-0.02771,-0.100159,1.01471
-0.0258179,-0.10022,1.01428
-0.0238037,-0.103088,1.01007
-0.022522,-0.101501,1.00922
-0.0205688,-0.0982056,1.00562
-0.0231934,-0.0916138,1.00555
-0.0251465,-0.0837402,1.00397
-0.0297241,-0.0795288,0.999939
-0.0352173,-0.0800781,0.997131
-0.0362549,-0.0856323,0.997986
-0.0349731,-0.0913696,1.00079
-0.0356445,-0.0930176,1.00726
-0.0350952,-0.0979614,1.01135
-0.0330811,-0.100891,1.0116
-0.0321655,-0.0998535,1.01495
-0.0442505,-0.0963745,1.01178
-0.0322876,-0.0927734,1.01086
-0.0343018,-0.0930176,1.00787
-0.0375366,-0.0917358,1.0069
-0.034668,-0.0901489,1.00641
-0.0374756,-0.0939941,1.005
-0.03479,-0.095459,1.00708
-0.0334473,-0.0934448,1.0083
-0.0310669,-0.0936279,1.00891
-0.0168457,-0.0922852,1.00751
-0.0292358,-0.0980225,1.0072
-0.0289917,-0.097229,1.00739
-0.020752,-0.101257,1.01318
-0.0177002,-0.104919,1.01593
-0.0181885,-0.106323,1.01758
-0.0177002,-0.105774,1.01276
-0.0211182,-0.100708,1.00885
-0.0234375,-0.0923462,1.00476
-0.0250244,-0.0827637,1.00055
-0.0298462,-0.0787354,0.998291
-0.0314331,-0.0812378,0.996887
-0.0334473,-0.0840454,1.00012
-0.0254517,-0.0901489,1.00745
-0.0258789,-0.0939331,1.01288
-0.026062,-0.0988159,1.02222
-0.0287476,-0.102783,1.01758
-0.0298462,-0.107666,1.01569
-0.0313721,-0.111755,1.01086
-0.0302124,-0.103882,1.00562
-0.0320435,-0.0985107,1.00543
-0.0299072,-0.0932007,1.00348
-0.0274658,-0.0859375,1.00153
-0.0310059,-0.081665,1.00073
-0.0283813,-0.0803223,0.999756
-0.0311279,-0.0824585,1.00171
-0.0307617,-0.0835571,1.00134
-0.0307007,-0.0911255,1.00269
-0.0284424,-0.093811,1.00916
-0.0463257,-0.101196,1.0119
-0.0359497,-0.106445,1.01367
-0.0372925,-0.105713,1.01691
-0.0371704,-0.108215,1.01648
-0.0333862,-0.110168,1.0155
-0.0300903,-0.103577,1.01868
-0.0258179,-0.097229,1.01477
-0.0206909,-0.0894775,1.01306
-0.0210571,-0.0871582,1.01208
-0.0228882,-0.0857544,1.0094
-0.0222168,-0.088562,1.00452
-0.0247803,-0.0892944,1.00677
-0.022583,-0.0935669,1.00616
-0.0248413,-0.0922852,1.00623
-0.0245972,-0.0952759,1.00598
-0.0294189,-0.0985107,1.00598
-0.0265503,-0.102417,1.00201
-0.0286255,-0.105225,1.00427
-0.0241089,-0.105225,1.00623
-0.0255737,-0.100891,1.00793
0.00445557,0.391602,0.935913
0.00146484,0.388611,0.936279
0.000854492,0.383362,0.936768
-0.00213623,0.379578,0.93689
-0.00512695,0.382507,0.936584
-0.00439453,0.380859,0.934937
-0.00775146,0.383728,0.931274
-0.0078125,0.381714,0.932983
-0.0100098,0.385193,0.932922
-0.00927734,0.387939,0.935913
-0.00854492,0.394348,0.934204
-0.00695801,0.399353,0.936523
-0.00402832,0.405396,0.938354
-0.00274658,0.405945,0.940063
-0.00244141,0.403503,0.942505
-0.0020752,0.397766,0.94043
-0.00286865,0.391113,0.942871
0.000671387,0.384888,0.944824
0.00244141,0.378235,0.945923
-0.0152588,0.373291,0.944275
-0.000854492,0.371338,0.944214
-0.000488281,0.368835,0.944336
-0.00488281,0.368652,0.942749
-0.00408936,0.373291,0.942261
-0.00384521,0.381348,0.94165
-0.00384521,0.391296,0.941833
-0.000610352,0.398254,0.942566
-0.00201416,0.402466,0.942017
-0.00164795,0.402832,0.943665
-0.00463867,0.402283,0.94342
-0.00476074,0.402344,0.940186
-0.00463867,0.404968,0.938843
-0.00500488,0.403625,0.93634
-0.00964355,0.396179,0.935669
-0.00909424,0.386047,0.934814
-0.00732422,0.380005,0.932617
-0.0045166,0.373657,0.933838
-0.00854492,0.372131,0.932861
-0.00671387,0.372864,0.934143
-0.00408936,0.380127,0.935547
-0.000732422,0.386841,0.934937
-0.00109863,0.392639,0.934937
-0.0020752,0.394714,0.934204
-0.00195312,0.400024,0.935303
-0.00726318,0.391602,0.937012
-0.00744629,0.408813,0.937256
-0.00720215,0.404663,0.938293
-0.0101318,0.401306,0.938599
-0.0114746,0.395874,0.940796
-0.00854492,0.388123,0.943481
-0.00811768,0.380188,0.946533
-0.00720215,0.373169,0.951355
-0.0010376,0.368103,0.953003
0.000671387,0.368774,0.95575
0.0010376,0.371094,0.956665
0.003479,0.377808,0.953613
0.00427246,0.38147,0.950684
0.00140381,0.39856,0.94519
0.00341797,0.387634,0.942932
-0.00726318,0.392212,0.942078
-0.00341797,0.398254,0.936523
-0.00549316,0.400391,0.934448
-0.0067749,0.398438,0.927734
-0.00897217,0.397156,0.925293
-0.00891113,0.390381,0.925537
-0.00341797,0.381958,0.929321
-0.00292969,0.385925,0.935303
-0.00170898,0.386658,0.939148
0.00146484,0.397217,0.944153
0.00408936,0.39917,0.947754
0.00354004,0.403198,0.945862
0.00146484,0.398499,0.947754
0.000366211,0.389954,0.948181
0.0012207,0.381653,0.951233
-0.00183105,0.379211,0.947815
-0.00390625,0.383606,0.95105
-0.00994873,0.383667,0.950806
-0.0111694,0.380554,0.948608
-0.0143433,0.378052,0.945801
-0.0155029,0.377869,0.944519
-0.0125122,0.385071,0.941711
-0.00665283,0.389648,0.940796
-0.003479,0.393311,0.941772
0.00146484,0.394836,0.946045
0.0057373,0.393555,0.945862
0.00671387,0.397705,0.946411
0.00823975,0.400024,0.944641
0.0119019,0.396973,0.941772
0.010376,0.396912,0.943298
0.00854492,0.400085,0.943115
0.00128174,0.397583,0.940918
-0.00738525,0.395508,0.936157
-0.0115356,0.394287,0.935364
-0.015625,0.391846,0.932434
-0.0206299,0.388611,0.932495
-0.0205688,0.383545,0.935181
-0.0202026,0.375977,0.935669
-0.0169678,0.360352,0.938354
-0.010376,0.376282,0.938293
-0.00756836,0.381165,0.938171
-0.0135498,0.57312,0.841736
-0.015686,0.572815,0.838074
-0.0162964,0.574341,0.839783
-0.0171509,0.573425,0.840088
-0.0132446,0.571167,0.838013
-0.0165405,0.569397,0.841858
-0.0220337,0.568542,0.842163
-0.0237427,0.568726,0.840515
-0.0266724,0.568848,0.839294
-0.0215454,0.56427,0.839417
-0.022522,0.565674,0.838379
-0.0214844,0.569397,0.840698
-0.0213013,0.570129,0.839783
-0.0232544,0.569092,0.837341
-0.0164185,0.568359,0.838745
-0.0149536,0.568176,0.836182
-0.0161743,0.570007,0.837646
-0.0151978,0.571106,0.840149
-0.013855,0.57019,0.839905
-0.0153198,0.568604,0.838501
-0.0150146,0.570679,0.839966
-0.0174561,0.571045,0.843201
-0.0196533,0.571228,0.840393
-0.020813,0.570801,0.841675
-0.0169067,0.569397,0.843872
-0.0150146,0.565247,0.849426
-0.0200195,0.566162,0.84967
-0.0256348,0.567444,0.844116
-0.020752,0.566528,0.843811
-0.020752,0.569336,0.841797
-0.0180054,0.571777,0.843628
-0.0167847,0.575867,0.840759
-0.0144043,0.576416,0.84021
-0.0153198,0.579102,0.835938
-0.0140381,0.573425,0.839355
-0.0131836,0.570862,0.840332
-0.015625,0.567627,0.84082
-0.0199585,0.569519,0.837402
-0.0228271,0.569397,0.83905
-0.0211182,0.569641,0.83728
-0.0167236,0.565308,0.837708
-0.0162354,0.565796,0.839294
-0.0189209,0.567871,0.839539
-0.0159302,0.565247,0.840881
-0.0163574,0.563965,0.84082
-0.0236816,0.564514,0.844238
-0.0259399,0.564514,0.841431
-0.0276489,0.565979,0.836914
-0.0203857,0.56543,0.834839
-0.0197754,0.567871,0.83844
-0.0189819,0.56958,0.839478
-0.0161133,0.570068,0.836853
-0.0159302,0.574829,0.839905
-0.0140381,0.570129,0.845398
-0.0150146,0.569153,0.847351
-0.0203857,0.571289,0.847107
-0.0229492,0.567505,0.845459
-0.0184326,0.567017,0.842651
-0.0166016,0.571533,0.843567
-0.0153809,0.574585,0.841125
-0.0159302,0.576599,0.838379
-0.0170898,0.577759,0.838135
-0.0146484,0.574463,0.837036
-0.0144653,0.57196,0.836975
-0.0165405,0.566467,0.842896
-0.0206299,0.564331,0.839661
-0.0275879,0.561707,0.838989
-0.0286255,0.560059,0.839905
-0.0245972,0.56012,0.842896
-0.020874,0.563965,0.844604
-0.0220337,0.56842,0.84375
-0.0185547,0.570496,0.840942
-0.0145874,0.570435,0.846069
-0.0129395,0.570435,0.84552
-0.0184326,0.571899,0.844116
-0.0218506,0.570984,0.845276
-0.0183716,0.567017,0.843506
-0.015564,0.56781,0.844299
-0.0125732,0.568787,0.844666
-0.0151978,0.572388,0.829102
-0.0194702,0.574341,0.840698
-0.0175781,0.57489,0.841003
-0.0177002,0.577637,0.842041
-0.0146484,0.574646,0.841003
-0.0168457,0.570374,0.840576
-0.0178223,0.566345,0.839233
-0.0187378,0.564941,0.839294
-0.0231934,0.562988,0.839233
-0.0244751,0.561829,0.841858
-0.0231934,0.564209,0.840576
-0.0236816,0.561646,0.838989
-0.0231323,0.561218,0.841553
-0.0228882,0.564209,0.841431
-0.0236816,0.567505,0.844788
-0.0206909,0.569031,0.844116
-0.0157471,0.572083,0.846619
-0.017334,0.574463,0.844116
-0.0187378,0.573975,0.847961
-0.0164185,0.568787,0.845764
-0.015564,0.569885,0.84729
-0.0186157,0.678772,0.746338
-0.0147095,0.675537,0.76355
-0.0134888,0.672852,0.754272
-0.0127563,0.670715,0.760132
-0.0105591,0.669373,0.759705
-0.0110474,0.668579,0.755981
-0.0106201,0.671448,0.751282
-0.0129395,0.677368,0.746826
-0.0310059,0.682861,0.741394
-0.0165405,0.685425,0.740173
-0.0170898,0.680481,0.743042
-0.022644,0.683838,0.745605
-0.0216064,0.683472,0.75
-0.019104,0.680908,0.753784
-0.0200806,0.681885,0.756348
-0.0210571,0.680481,0.761536
-0.0211792,0.676636,0.762817
-0.0195923,0.675232,0.761658
-0.0194702,0.67865,0.759277
-0.0167236,0.682312,0.75824
-0.0298462,0.687988,0.756897
-0.00195312,0.691528,0.753906
-0.0135498,0.692566,0.756409
-0.0113525,0.687927,0.756165
-0.00640869,0.685486,0.755005
-0.00671387,0.680969,0.755554
-0.00921631,0.678467,0.754028
-0.0144653,0.676941,0.755127
-0.0155029,0.6745,0.750427
-0.0178833,0.674255,0.749451
-0.0153198,0.674255,0.749573
-0.0146484,0.673889,0.748108
-0.0179443,0.676697,0.748779
-0.0201416,0.67804,0.746887
-0.0192261,0.679443,0.748962
-0.0218506,0.683105,0.74939
-0.0213623,0.684021,0.747803
-0.015625,0.683533,0.748169
-0.0148315,0.684814,0.749329
-0.0174561,0.686096,0.752075
-0.0151367,0.684387,0.752808
-0.0165405,0.682861,0.752686
-0.0125122,0.683594,0.757202
-0.0115967,0.681091,0.755371
-0.0117188,0.68103,0.752808
-0.0119019,0.679199,0.754395
-0.0145264,0.67804,0.75293
-0.0307617,0.678711,0.754028
-0.0154419,0.681335,0.752686
-0.0186157,0.677429,0.752075
-0.0159302,0.681519,0.751099
-0.0133057,0.682861,0.75061
-0.0140991,0.67865,0.75708
-0.0213013,0.67865,0.753723
-0.0178223,0.674866,0.757019
-0.0144653,0.674194,0.756226
-0.0165405,0.674622,0.756348
-0.00183105,0.676758,0.75354
-0.0152588,0.67981,0.752991
-0.0137329,0.682373,0.754639
-0.0144043,0.682068,0.758423
-0.0120239,0.684204,0.760315
-0.0146484,0.68689,0.753784
-0.0127563,0.690674,0.752319
-0.00909424,0.691528,0.752869
-0.0103149,0.688721,0.752258
-0.0161133,0.687988,0.751282
-0.0171509,0.686157,0.752258
-0.0186157,0.682861,0.751892
-0.0172729,0.680054,0.752136
-0.0155029,0.678955,0.751526
-0.0151367,0.681519,0.750122
-0.0145264,0.678345,0.749939
-0.0154419,0.67627,0.74823
-0.0159302,0.67572,0.751526
-0.0159912,0.675354,0.750854
-0.0167847,0.673523,0.765259
-0.0177002,0.675354,0.747192
-0.0164795,0.675415,0.7453
-0.015686,0.675964,0.748901
-0.0151367,0.677856,0.745972
-0.0157471,0.680176,0.748718
-0.0186768,0.680176,0.751404
-0.0178833,0.683167,0.753662
-0.0184326,0.684265,0.754272
-0.0163574,0.683411,0.753662
-0.0145264,0.68396,0.756958
-0.0136108,0.685303,0.754822
-0.012085,0.685425,0.753906
-0.0108643,0.684692,0.756592
-0.00695801,0.683044,0.75592
-0.00854492,0.682251,0.758606
-0.00927734,0.68335,0.758911
-0.0120239,0.681152,0.759644
-0.013916,0.680786,0.761963
-0.0123901,0.67804,0.761353
-0.0115967,0.680481,0.761353
-0.00842285,0.681519,0.760071
-0.00927734,0.684875,0.755066
-0.00628662,0.684509,0.756836
-0.0272217,0.852173,0.541626
-0.0291138,0.853638,0.540466
-0.0288696,0.852356,0.545044
-0.0276489,0.855225,0.544922
-0.02948,0.856323,0.545044
-0.0299683,0.853149,0.544922
-0.0298462,0.852417,0.543274
-0.0300293,0.853638,0.542603
-0.0285645,0.854797,0.541565
-0.0285034,0.853271,0.542358
-0.0296631,0.854736,0.542908
-0.0273438,0.85144,0.543518
-0.0304565,0.855103,0.543945
-0.0272827,0.854614,0.543518
-0.0291748,0.858276,0.545654
-0.0307007,0.854126,0.545166
-0.0291138,0.853088,0.5448
-0.0282593,0.853027,0.54541
-0.0291138,0.855957,0.541321
-0.0302124,0.854736,0.542297
-0.0294189,0.854248,0.54071
-0.0285034,0.854797,0.540039
-0.0289917,0.855713,0.545044
-0.0269775,0.855713,0.542969
-0.0290527,0.853394,0.542908
-0.0289917,0.852356,0.541504
-0.0291138,0.853394,0.542725
-0.0293579,0.855896,0.541687
-0.0264282,0.854675,0.543091
-0.0306396,0.852051,0.540894
-0.0285034,0.852295,0.541443
-0.029541,0.852783,0.540283
-0.0274048,0.853027,0.539856
-0.0291138,0.853638,0.543762
-0.0283813,0.854248,0.54248
-0.0280762,0.854919,0.544556
-0.0285034,0.854553,0.54248
-0.0291138,0.856018,0.5448
-0.0296021,0.854736,0.544006
-0.026123,0.855652,0.546509
-0.03125,0.852295,0.543579
-0.0291748,0.856873,0.545776
-0.0274658,0.85614,0.543762
-0.0318604,0.854797,0.54657
-0.0275879,0.855164,0.544128
-0.0278931,0.853882,0.543091
-0.0264893,0.854309,0.540588
-0.0300903,0.855713,0.542053
-0.0293579,0.85437,0.542114
-0.0274048,0.852966,0.543091
-0.0286255,0.85498,0.541687
-0.0275879,0.854614,0.544312
-0.0300293,0.853882,0.540588
-0.0272827,0.851624,0.541077
-0.0270996,0.852722,0.538513
-0.0284424,0.855103,0.543579
-0.0276489,0.855103,0.543518
-0.0314331,0.854309,0.543213
-0.0284424,0.853333,0.541138
-0.0289307,0.852844,0.541687
-0.0289307,0.854126,0.542297
-0.0278931,0.853882,0.541809
-0.0288086,0.85437,0.544922
-0.0285645,0.854187,0.546204
-0.0286255,0.856567,0.545044
-0.027832,0.85553,0.545776
-0.0269775,0.855225,0.544434
-0.0272217,0.857422,0.546753
-0.0297852,0.856506,0.546143
-0.0280762,0.855957,0.543701
-0.0273438,0.854065,0.543213
-0.0290527,0.853149,0.539551
-0.0291748,0.852966,0.538818
-0.0296021,0.854065,0.542908
-0.0289307,0.852905,0.541992
-0.0298462,0.853271,0.543579
-0.0276489,0.856567,0.541138
-0.02771,0.851746,0.541321
-0.0296021,0.852478,0.542419
-0.0304565,0.853516,0.539917
-0.029541,0.8526,0.542664
-0.0284424,0.85675,0.546265
-0.0285034,0.854797,0.543823
-0.0286865,0.856812,0.543213
-0.0274658,0.852844,0.543945
-0.0274048,0.853638,0.54248
-0.0288086,0.855286,0.542603
-0.0289307,0.852722,0.543701
-0.0307617,0.855713,0.543457
-0.0285034,0.854065,0.541138
-0.0305786,0.853027,0.542847
-0.0303955,0.853088,0.541931
-0.0276489,0.853516,0.545776
-0.0304565,0.856323,0.542847
-0.029541,0.856812,0.54657
-0.0258179,0.854431,0.54541
-0.0287476,0.853699,0.547241
-0.0287476,0.856201,0.546448
-0.027771,0.855835,0.542603
-0.0299072,0.853882,0.544556
-0.0300903,1.0033,0.0325317
-0.0307007,1.00275,0.0322876
-0.0326538,1.00269,0.0322876
-0.0314941,1.00531,0.0335083
-0.0298462,1.00421,0.0316162
-0.0281372,1.00385,0.0313721
-0.0313721,1.00342,0.0314331
-0.0327759,1.005,0.0345459
-0.0317993,1.00232,0.0330811
-0.03125,1.0025,0.0300293
-0.0298462,1.00208,0.0324707
-0.0338745,1.0011,0.0320435
-0.0302124,1.0011,0.0314331
-0.0307617,1.00311,0.0324097
-0.0301514,1.00189,0.0307617
-0.0303955,1.00403,0.0316772
-0.0321045,1.00409,0.0328979
-0.0325317,1.00464,0.0326538
-0.0299683,1.00403,0.0360107
-0.0275269,1.0036,0.0328979
-0.0307617,1.00208,0.0315552
-0.0324097,1.00208,0.0162964
-0.0281372,1.00208,0.0305176
-0.0291138,1.00159,0.0311279
-0.0284424,1.00488,0.034729
-0.031311,1.00726,0.0317993
-0.0300903,1.005,0.0305786
-0.0299683,1.00525,0.0321045
-0.0319214,1.00201,0.0313721
-0.029541,1.00256,0.0307617
-0.0288696,1.00269,0.0324097
-0.0340576,1.00354,0.0353394
-0.0285645,1.0025,0.0325928
-0.0337524,1.00354,0.0307617
-0.0293579,1.00269,0.0159912
-0.0317383,1.00317,0.0307007
-0.0302124,1.00409,0.0311279
-0.0304565,1.00354,0.0328979
-0.0301514,1.00085,0.0314331
-0.0296631,1.00122,0.03302
-0.0269775,1.00201,0.0311279
-0.0306396,1.00262,0.0178833
-0.0304565,1.00287,0.0313721
-0.0299072,1.00415,0.0467529
-0.0326538,1.00452,0.0310669
-0.0289307,1.00391,0.0324097
-0.0286255,1.00482,0.046875
-0.0298462,1.00366,0.0305176
-0.0309448,1.00092,0.0305786
-0.0304565,1.00159,0.0294189
-0.0281372,1.00293,0.0305176
-0.0323486,1.00287,0.031189
-0.0302124,1.00299,0.0334473
-0.0305176,1.00293,0.0302734
-0.031311,1.00208,0.0325928
-0.0273438,1.00262,0.0354614
-0.031311,1.00464,0.0317383
-0.0302124,1.00446,0.0331421
-0.0323486,1.00421,0.0314331
-0.0273438,1.00311,0.0319214
-0.0309448,1.00342,0.0314941
-0.02948,1.00256,0.0333862
-0.0429077,1.00317,0.0316162
-0.0314331,1.00305,0.0314331
-0.0299072,1.00293,0.031189
-0.0306396,1.0025,0.0333252
-0.0297852,1.00208,0.0322266
-0.0338745,1.005,0.0333862
-0.0319824,1.00232,0.0321655
-0.0297241,1.00122,0.0327759
-0.0297241,1.00214,0.0314941
-0.0289917,1.00281,0.0306396
-0.0286865,1.00269,0.0308228
-0.0319824,1.00397,0.0335693
-0.0333862,1.00232,0.0327148
-0.0292358,1.0025,0.0325317
-0.0305786,1.0047,0.0318604
-0.0319824,1.00238,0.032959
-0.0305176,1.00494,0.0308838
-0.0309448,1.00305,0.0303345
-0.0310059,1.00372,0.0314941
-0.0315552,1.00439,0.0318604
-0.0291748,1.00238,0.0457153
-0.0297241,1.00354,0.0301514
-0.03125,1.00372,0.0326538
-0.0305786,1.00427,0.0317993
-0.0306396,1.00354,0.0307617
-0.0302734,1.00165,0.0337524
-0.0297241,1.00421,0.0320435
-0.0297241,1.00183,0.0317993
-0.0319214,1.00317,0.0310059
-0.0463257,1.00537,0.0325317
-0.0307617,1.00409,0.0358276
-0.0308228,1.0047,0.0349121
-0.0296631,1.00464,0.0317383
-0.0308228,1.00305,0.0321045
-0.0308228,1.00354,0.0161133
-0.0279541,1.00305,0.031311
-0.0297852,1.00317,0.0322876
-0.0324097,1.00317,0.0302124
-0.0351562,0.941467,-0.334106
-0.0354004,0.939575,-0.334473
-0.0368652,0.942871,-0.332153
-0.0359497,0.94281,-0.330322
-0.0344238,0.945679,-0.330933
-0.0365601,0.943787,-0.330505
-0.0373535,0.941589,-0.332336
-0.0371094,0.944336,-0.335266
-0.0363159,0.940247,-0.331909
-0.0350342,0.940552,-0.331543
-0.0358887,0.941345,-0.332153
-0.0349731,0.941467,-0.333923
-0.0376587,0.941528,-0.331909
-0.0365601,0.942688,-0.335815
-0.0367432,0.945618,-0.330933
-0.0375366,0.944641,-0.33313
-0.036438,0.944519,-0.334473
-0.0356445,0.94458,-0.330078
-0.0332031,0.946167,-0.313049
-0.0348511,0.945618,-0.330811
-0.0350342,0.943115,-0.331726
-0.0338135,0.940308,-0.333435
-0.038208,0.941711,-0.33136
-0.0358887,0.941528,-0.332397
-0.0369263,0.940063,-0.333923
-0.0370483,0.940125,-0.33197
-0.0360107,0.942749,-0.331665
-0.0370483,0.938843,-0.333496
-0.0386963,0.940491,-0.336304
-0.0358276,0.939697,-0.335144
-0.0339355,0.943298,-0.333313
-0.0348511,0.945923,-0.330017
-0.0342407,0.942261,-0.331177
-0.036438,0.944641,-0.329529
-0.0348511,0.944702,-0.330627
-0.0372314,0.94104,-0.335571
-0.0375366,0.94281,-0.329407
-0.0384521,0.942749,-0.331726
-0.0325317,0.944702,-0.329834
-0.0349731,0.94458,-0.330505
-0.0408325,0.944702,-0.331055
-0.0357056,0.945251,-0.32782
-0.0341187,0.946411,-0.327759
-0.0357666,0.946045,-0.327026
-0.0365601,0.946411,-0.326782
-0.0366821,0.947571,-0.327759
-0.0363159,0.94574,-0.329285
-0.0371094,0.942261,-0.329224
-0.034729,0.941345,-0.332458
-0.0377197,0.943542,-0.33136
-0.0368652,0.941345,-0.333679
-0.0353394,0.94397,-0.331116
-0.0363159,0.944092,-0.333435
-0.0370483,0.943054,-0.332642
-0.0368042,0.942139,-0.330994
-0.0350952,0.943848,-0.332825
-0.0350952,0.941528,-0.331482
-0.034668,0.937439,-0.331726
-0.0335693,0.940613,-0.333069
-0.0353394,0.942383,-0.333557
-0.0352173,0.945679,-0.330994
-0.0356445,0.944946,-0.329285
-0.0355835,0.946228,-0.330322
-0.0366821,0.945923,-0.329102
-0.0365601,0.946167,-0.329773
-0.0362549,0.943909,-0.331787
-0.0368042,0.944153,-0.331787
-0.0331421,0.942505,-0.333008
-0.0358276,0.940247,-0.334045
-0.0350952,0.941406,-0.333679
-0.0363159,0.940063,-0.332458
-0.0316162,0.941467,-0.331299
-0.0331421,0.942749,-0.330872
-0.0374146,0.944214,-0.330383
-0.0369263,0.941589,-0.330078
-0.0354614,0.942993,-0.3302
-0.0360718,0.943237,-0.331787
-0.0407104,0.945312,-0.329468
-0.0358276,0.945679,-0.327454
-0.0355835,0.94519,-0.325684
-0.0392456,0.949341,-0.326294
-0.0341797,0.943054,-0.329041
-0.0363159,0.942505,-0.332153
-0.0343628,0.941162,-0.333923
-0.0345459,0.93927,-0.334412
-0.0357056,0.940735,-0.331848
-0.0354004,0.94281,-0.333008
-0.0355225,0.946045,-0.330566
-0.0360107,0.943359,-0.329163
-0.0363159,0.941589,-0.332336
-0.0344238,0.940186,-0.334473
-0.0383301,0.93988,-0.336975
-0.0372925,0.939697,-0.335815
-0.0379028,0.941895,-0.334412
-0.0367432,0.943726,-0.332642
-0.032959,0.943359,-0.330261
-0.0354004,0.942871,-0.33197
-0.0361328,0.93927,-0.331604
-0.0376587,0.939941,-0.336426
-0.0408936,0.938782,-0.33252
-0.0321045,0.813171,-0.573181
-0.0313721,0.814209,-0.572144
-0.0308228,0.812561,-0.57196
-0.0322876,0.811157,-0.572021
-0.0311279,0.813354,-0.56958
-0.0324707,0.813721,-0.571045
-0.0318604,0.817932,-0.57019
-0.03302,0.819397,-0.56781
-0.0305176,0.821411,-0.563171
-0.0352783,0.824219,-0.564148
-0.02948,0.820618,-0.560181
-0.0327148,0.822266,-0.565674
-0.0319824,0.822815,-0.564392
-0.0327759,0.82019,-0.565674
-0.0322876,0.821655,-0.564697
-0.0335083,0.82074,-0.567139
-0.0319824,0.822937,-0.563965
-0.0308228,0.821411,-0.565613
-0.0462036,0.820129,-0.569702
-0.0318604,0.816162,-0.570618
-0.0336304,0.813232,-0.573242
-0.0314941,0.812073,-0.572754
-0.0345459,0.810425,-0.578674
-0.0331421,0.810181,-0.579956
-0.0321045,0.809387,-0.579834
-0.0327148,0.812439,-0.577393
-0.0327759,0.815674,-0.574585
-0.0343018,0.818787,-0.569458
-0.0321655,0.816528,-0.568176
-0.0338135,0.81604,-0.566895
-0.0326538,0.815063,-0.567688
-0.0328979,0.819641,-0.565491
-0.032959,0.822571,-0.564575
-0.0336914,0.822449,-0.565613
-0.0300903,0.818542,-0.566345
-0.0338745,0.818726,-0.565857
-0.03302,0.818848,-0.567749
-0.0338745,0.820068,-0.565186
-0.0336914,0.822388,-0.565857
-0.0352783,0.821411,-0.566895
-0.0328979,0.818665,-0.566956
-0.03479,0.81897,-0.570251
-0.0335083,0.816956,-0.571167
-0.0303345,0.815979,-0.57135
-0.0315552,0.815674,-0.570557
-0.0338135,0.815308,-0.56958
-0.0340576,0.817078,-0.570496
-0.03302,0.818298,-0.571289
-0.0178223,0.816711,-0.573486
-0.0345459,0.815918,-0.571411
-0.0335693,0.815613,-0.572083
-0.0339966,0.816101,-0.571716
-0.0316772,0.816895,-0.571167
-0.0166626,0.81189,-0.573853
-0.0305786,0.812256,-0.575806
-0.032959,0.809937,-0.578369
-0.0317993,0.806335,-0.580078
-0.0301514,0.805969,-0.580017
-0.0306396,0.805786,-0.579773
-0.0325928,0.804321,-0.579468
-0.0308228,0.827881,-0.575195
-0.0314941,0.812622,-0.573853
-0.0316772,0.817017,-0.572388
-0.0336914,0.819153,-0.56958
-0.0325317,0.818787,-0.564026
-0.0466309,0.820923,-0.566406
-0.0310059,0.81958,-0.567505
-0.0338135,0.817505,-0.567383
-0.0467529,0.819214,-0.564941
-0.0314941,0.820251,-0.565002
-0.0307617,0.822998,-0.565613
-0.0332031,0.825562,-0.561279
-0.0340576,0.82135,-0.565674
-0.0313721,0.820496,-0.565613
-0.0327759,0.817932,-0.567749
-0.0326538,0.820129,-0.567566
-0.0317383,0.817261,-0.57251
-0.038269,0.819397,-0.569946
-0.0313721,0.817932,-0.567627
-0.0302734,0.818115,-0.56604
-0.0316772,0.817261,-0.568054
-0.0320435,0.814819,-0.57019
-0.03479,0.813477,-0.570557
-0.0319824,0.813171,-0.572754
-0.0194092,0.810547,-0.574829
-0.0325317,0.809875,-0.575439
-0.0327148,0.810486,-0.575867
-0.0324097,0.813538,-0.574036
-0.0325928,0.815857,-0.576172
-0.0316162,0.814819,-0.574402
-0.0466309,0.813293,-0.571838
-0.03479,0.812317,-0.573181
-0.0319824,0.809753,-0.574646
-0.0321655,0.812134,-0.572815
-0.0321655,0.817078,-0.567505
-0.0320435,0.819824,-0.56958
-0.0327148,0.819031,-0.565002
-0.0315552,0.821472,-0.564209
-0.0332642,0.822266,-0.564026
-0.03125,0.821411,-0.5625
-0.0316772,0.721191,-0.684204
-0.0308228,0.718628,-0.684875
-0.03125,0.717346,-0.685486
-0.0340576,0.717163,-0.689697
-0.0291138,0.716492,-0.68927
-0.0322266,0.71875,-0.689514
-0.0311279,0.719727,-0.687073
-0.0296021,0.719849,-0.685913
-0.0317383,0.7229,-0.672119
-0.03125,0.720947,-0.684692
-0.0334473,0.723206,-0.682739
-0.0322876,0.722595,-0.682861
-0.0303345,0.724976,-0.684631
-0.0303345,0.718506,-0.688599
-0.0319824,0.716187,-0.690186
-0.0321655,0.711487,-0.69165
-0.0294189,0.71228,-0.694214
-0.029541,0.710754,-0.692322
-0.0288696,0.712097,-0.693909
-0.0462646,0.714172,-0.691528
-0.0317993,0.716064,-0.690613
-0.0302734,0.718445,-0.689514
-0.03125,0.718628,-0.687317
-0.0338745,0.722534,-0.681763
-0.0327759,0.722778,-0.681641
-0.0302734,0.723267,-0.680054
-0.0307007,0.720703,-0.684937
-0.0326538,0.718384,-0.686646
-0.0327148,0.716309,-0.68811
-0.0338745,0.715149,-0.691589
-0.0293579,0.714722,-0.691711
-0.0304565,0.713562,-0.690979
-0.0311279,0.713257,-0.692688
-0.0457153,0.715515,-0.688599
-0.0326538,0.715515,-0.688354
-0.0299072,0.716125,-0.700317
-0.0299072,0.71637,-0.686646
-0.0316162,0.718445,-0.702759
-0.0321045,0.717651,-0.685181
-0.0318604,0.722412,-0.6875
-0.0162354,0.719727,-0.686035
-0.0302734,0.720459,-0.684998
-0.0313721,0.719604,-0.6828
-0.0305786,0.719543,-0.686584
-0.0299072,0.716064,-0.690002
-0.0309448,0.717163,-0.703003
-0.031311,0.719238,-0.671997
-0.0314331,0.717041,-0.686951
-0.0313721,0.717651,-0.689026
-0.0291748,0.713745,-0.688904
-0.029541,0.713013,-0.688049
-0.0332031,0.714539,-0.690918
-0.03302,0.713379,-0.690796
-0.0299683,0.714111,-0.689087
-0.03302,0.71698,-0.687134
-0.0297241,0.717712,-0.685669
-0.0452271,0.719055,-0.68689
-0.0309448,0.724426,-0.682739
-0.0321655,0.724854,-0.680054
-0.0324707,0.72522,-0.680298
-0.0320435,0.725098,-0.679321
-0.0314941,0.721191,-0.682068
-0.0296631,0.71582,-0.68634
-0.0297241,0.712585,-0.690552
-0.0321045,0.710022,-0.697632
-0.0324097,0.70874,-0.697754
-0.0328979,0.710022,-0.698181
-0.0305786,0.710876,-0.698364
-0.0310059,0.708984,-0.696228
-0.0463867,0.712891,-0.693481
-0.0305176,0.71283,-0.692688
-0.0330811,0.711792,-0.691406
-0.0336914,0.714966,-0.67395
-0.031311,0.718323,-0.687622
-0.0317383,0.717346,-0.684387
-0.0322266,0.717346,-0.687439
-0.0317993,0.718445,-0.686157
-0.0466919,0.71936,-0.686462
-0.0316162,0.721497,-0.686462
-0.0294189,0.720398,-0.684814
-0.0315552,0.720093,-0.685242
-0.0317383,0.724487,-0.685242
-0.0326538,0.724792,-0.682251
-0.0466309,0.726929,-0.681885
-0.0307007,0.72406,-0.681335
-0.0332031,0.720764,-0.686035
-0.031311,0.716919,-0.687378
-0.0335083,0.716492,-0.69165
-0.0320435,0.716309,-0.688599
-0.0307617,0.715149,-0.691895
-0.0319824,0.713379,-0.692505
-0.0322876,0.715454,-0.693726
-0.0314941,0.715515,-0.691162
-0.0319824,0.712097,-0.691162
-0.0283813,0.714844,-0.693787
-0.03302,0.712158,-0.692261
-0.0343628,0.713501,-0.694946
-0.03125,0.712708,-0.693298
-0.0313721,0.714417,-0.692688
-0.0342407,0.715149,-0.688904
-0.0325928,0.581421,-0.801147
-0.0300293,0.580261,-0.804199
-0.0304565,0.576477,-0.803345
-0.0309448,0.575989,-0.807129
-0.03125,0.577942,-0.807556
-0.0292969,0.575439,-0.804932
-0.0310669,0.575867,-0.805847
-0.0294189,0.57373,-0.804321
-0.0299072,0.57843,-0.803406
-0.0327148,0.581665,-0.802246
-0.0302124,0.582642,-0.798462
-0.0319824,0.581482,-0.798706
-0.029541,0.579834,-0.79895
-0.0302734,0.579773,-0.80072
-0.0332031,0.580017,-0.80304
-0.0319214,0.577759,-0.804321
-0.0287476,0.576416,-0.805176
-0.0316772,0.577026,-0.804016
-0.031189,0.576782,-0.805603
-0.0291138,0.575928,-0.806091
-0.0328369,0.575623,-0.805298
-0.0290527,0.576477,-0.80365
-0.0465698,0.576294,-0.80481
-0.0336304,0.579163,-0.805298
-0.0289307,0.577148,-0.80249
-0.0322876,0.579773,-0.802734
-0.0301514,0.58075,-0.800781
-0.0337524,0.579163,-0.800598
-0.0456543,0.581421,-0.801453
-0.0317993,0.580811,-0.799316
-0.0285645,0.581543,-0.798767
-0.03125,0.582886,-0.798401
-0.0316162,0.582825,-0.80365
-0.0303345,0.580017,-0.80188
-0.0321045,0.579346,-0.801392
-0.0316162,0.577332,-0.801331
-0.0308228,0.575317,-0.805664
-0.0336304,0.575928,-0.803711
-0.031311,0.577087,-0.804504
-0.0285645,0.578186,-0.805847
-0.0275269,0.577209,-0.805115
-0.0310059,0.576111,-0.806702
-0.0339355,0.572937,-0.804382
-0.0300293,0.575378,-0.803345
-0.0297241,0.576538,-0.805542
-0.046875,0.577332,-0.803894
-0.029541,0.578247,-0.802917
-0.0317383,0.582153,-0.799805
-0.0314331,0.583557,-0.799316
-0.0296631,0.586182,-0.798096
-0.0293579,0.584473,-0.796143
-0.0303345,0.585449,-0.796143
-0.0310669,0.582764,-0.796509
-0.0309448,0.577454,-0.801025
-0.0317383,0.57489,-0.805664
-0.0323486,0.573059,-0.806213
-0.0328979,0.575684,-0.807983
-0.0319824,0.575195,-0.807129
-0.0309448,0.575867,-0.801392
-0.0308838,0.579529,-0.802185
-0.0313721,0.578918,-0.800598
-0.0302734,0.581299,-0.797363
-0.0462646,0.5849,-0.794495
-0.0308228,0.586426,-0.795288
-0.0305176,0.58551,-0.796692
-0.02948,0.583374,-0.799255
-0.0327759,0.578125,-0.79895
-0.0302124,0.577637,-0.802734
-0.0299072,0.575012,-0.807983
-0.0330811,0.572937,-0.808533
-0.0319824,0.573547,-0.808533
-0.0326538,0.573242,-0.807861
-0.0330811,0.576782,-0.804016
-0.0302734,0.578369,-0.802002
-0.0307007,0.580627,-0.800659
-0.0300903,0.583801,-0.797607
-0.0296631,0.5849,-0.796387
-0.0310059,0.584473,-0.795837
-0.0453491,0.584961,-0.795288
-0.031311,0.584106,-0.798706
-0.0326538,0.577393,-0.804321
-0.0308838,0.577026,-0.805542
-0.02948,0.574036,-0.807251
-0.031189,0.573547,-0.80896
-0.0303345,0.573853,-0.809387
-0.0316162,0.574158,-0.805847
-0.0305176,0.57489,-0.805054
-0.029541,0.578247,-0.801941
-0.0327759,0.582458,-0.800171
-0.0462036,0.584473,-0.799866
-0.0322876,0.585754,-0.796692
-0.0298462,0.585327,-0.79541
-0.0317383,0.582764,-0.795349
-0.031311,0.585266,-0.796326
-0.0337524,0.583069,-0.797668
-0.0301514,0.578613,-0.80011
-0.0307617,0.575867,-0.805237
-0.0325317,0.575378,-0.804749
-0.0301514,0.573914,-0.807617
-0.0322876,0.575745,-0.80957
-0.0327759,0.451172,-0.879028
-0.0299072,0.438171,-0.881287
-0.0299072,0.437561,-0.880371
-0.0273438,0.454773,-0.878235
-0.0307007,0.456787,-0.875366
-0.0319824,0.460938,-0.874512
-0.0296021,0.460205,-0.872437
-0.0301514,0.456909,-0.872498
-0.0289917,0.458008,-0.878174
-0.03125,0.453796,-0.877197
-0.031311,0.453491,-0.879517
-0.027771,0.452942,-0.878723
-0.0292358,0.455261,-0.877808
-0.0304565,0.457703,-0.860474
-0.0278931,0.458984,-0.874878
-0.0308838,0.459045,-0.873657
-0.0305786,0.458557,-0.87207
-0.0299072,0.459717,-0.874939
-0.0315552,0.457153,-0.876099
-0.0303955,0.457458,-0.876343
-0.0291138,0.45459,-0.875244
-0.0286865,0.456665,-0.876282
-0.0270386,0.455872,-0.860107
-0.0313721,0.457153,-0.876099
-0.0311279,0.454834,-0.8797
-0.0305176,0.454407,-0.878784
-0.0296631,0.453979,-0.879211
-0.0302734,0.456787,-0.880981
-0.0303345,0.455811,-0.876526
-0.0297241,0.454529,-0.877686
-0.0296021,0.456787,-0.874573
-0.0247192,0.458069,-0.873108
-0.0291748,0.460571,-0.873657
-0.0320435,0.463623,-0.872437
-0.02771,0.460144,-0.872803
-0.0319824,0.457397,-0.875366
-0.0297852,0.454651,-0.879333
-0.0271606,0.453735,-0.876831
-0.0302124,0.451599,-0.883118
-0.03479,0.45282,-0.880188
-0.0302124,0.453125,-0.883484
-0.0288086,0.451477,-0.879089
-0.0305176,0.454712,-0.880676
-0.0447388,0.4552,-0.879517
-0.0332031,0.456543,-0.87561
-0.0280151,0.459229,-0.875793
-0.0267944,0.459534,-0.873474
-0.03125,0.461914,-0.87323
-0.0319824,0.460144,-0.873535
-0.0306396,0.461243,-0.872375
-0.0297852,0.456177,-0.875488
-0.0297241,0.457581,-0.876282
-0.0325928,0.439148,-0.877625
-0.0297852,0.453308,-0.879211
-0.0318604,0.4552,-0.879517
-0.0293579,0.452759,-0.878296
-0.0292358,0.456238,-0.87793
-0.0317993,0.456909,-0.87793
-0.0303955,0.458923,-0.876221
-0.0306396,0.457031,-0.875977
-0.0292358,0.458618,-0.876343
-0.0281982,0.458496,-0.874695
-0.0303345,0.456909,-0.873108
-0.0300903,0.45752,-0.877014
-0.0307617,0.455322,-0.875244
-0.0290527,0.455872,-0.878784
-0.0297852,0.455139,-0.880859
-0.0274658,0.454224,-0.880127
-0.0287476,0.454712,-0.878418
-0.0310669,0.454712,-0.877014
-0.0269165,0.453857,-0.877991
-0.0282593,0.453857,-0.878784
-0.0331421,0.455139,-0.876709
-0.0310669,0.454102,-0.878906
-0.0289307,0.452698,-0.87915
-0.0287476,0.452637,-0.879883
-0.0289307,0.455811,-0.876953
-0.0286255,0.4552,-0.877563
-0.0302734,0.45636,-0.876831
-0.0288696,0.458496,-0.874084
-0.0316772,0.45874,-0.873413
-0.0324097,0.459412,-0.87439
-0.031189,0.458435,-0.872986
-0.0306396,0.457703,-0.874817
-0.0288696,0.457764,-0.876343
-0.0292969,0.460083,-0.878418
-0.0305786,0.454163,-0.875
-0.0319214,0.455017,-0.878235
-0.0297852,0.455383,-0.879211
-0.0291138,0.452942,-0.880127
-0.0299683,0.452209,-0.878906
-0.0330811,0.455078,-0.880432
-0.0308228,0.457458,-0.880676
-0.0272217,0.453674,-0.878296
-0.0303955,0.456909,-0.875244
-0.0316162,0.45929,-0.874084
-0.0274658,0.459045,-0.873718
-0.0296631,0.459229,-0.875488
-0.0281372,0.457397,-0.875671
-0.0303955,0.457092,-0.874939
-0.0261841,0.281494,-0.941895
-0.0244141,0.266052,-0.945129
-0.0265503,0.281189,-0.941772
-0.0267334,0.280457,-0.944275
-0.0270996,0.280579,-0.94519
-0.0252686,0.280701,-0.943481
-0.0251465,0.278992,-0.94458
-0.0279541,0.280884,-0.943848
-0.0278931,0.279602,-0.942627
-0.0245972,0.281311,-0.940735
-0.0251465,0.282104,-0.942932
-0.0274658,0.28125,-0.944275
-0.0278931,0.294312,-0.945557
-0.0258179,0.278809,-0.947205
-0.026123,0.276855,-0.946167
-0.0289307,0.277771,-0.943604
-0.0267944,0.282593,-0.942505
-0.0268555,0.284668,-0.941528
-0.0266113,0.284851,-0.940552
-0.02771,0.281372,-0.942505
-0.0270996,0.280762,-0.945557
-0.0267944,0.275879,-0.948669
-0.0276489,0.275024,-0.948608
-0.024231,0.276306,-0.945435
-0.0269165,0.278992,-0.945679
-0.024231,0.282349,-0.943542
-0.0269775,0.282715,-0.941772
-0.0274658,0.2854,-0.94043
-0.0252686,0.284485,-0.941895
-0.0254517,0.281006,-0.942993
-0.0253906,0.280884,-0.946716
-0.0300903,0.277832,-0.947388
-0.0275879,0.276611,-0.949829
-0.026001,0.275391,-0.947327
-0.0263062,0.280701,-0.943604
-0.0266113,0.283447,-0.942627
-0.0272827,0.284485,-0.937378
-0.0285645,0.285156,-0.942383
-0.0278931,0.284973,-0.941345
-0.0270386,0.28009,-0.94397
-0.026062,0.277832,-0.94873
-0.0271606,0.275391,-0.947144
-0.026001,0.276855,-0.950684
-0.0257568,0.27832,-0.945801
-0.0294189,0.28064,-0.941772
-0.0287476,0.28363,-0.944092
-0.0280762,0.285767,-0.941284
-0.0238037,0.285217,-0.941406
-0.0296631,0.284546,-0.940674
-0.0275879,0.283752,-0.939819
-0.027832,0.281433,-0.946228
-0.0272217,0.276245,-0.949585
-0.0289307,0.275391,-0.946106
-0.0296021,0.276184,-0.949463
-0.0253906,0.278564,-0.945129
-0.027832,0.282715,-0.945312
-0.0249023,0.281616,-0.942261
-0.0276489,0.282898,-0.943176
-0.0251465,0.280579,-0.943298
-0.0286865,0.280151,-0.942993
-0.0268555,0.279785,-0.942871
-0.0287476,0.282715,-0.942383
-0.0296021,0.281677,-0.940552
-0.0282593,0.280823,-0.944153
-0.0262451,0.279236,-0.944824
-0.0268555,0.278625,-0.945923
-0.0267944,0.276978,-0.946228
-0.0258789,0.279419,-0.945679
-0.0263672,0.280457,-0.942139
-0.0256958,0.281555,-0.9375
-0.0301514,0.28717,-0.941772
-0.026123,0.282715,-0.939453
-0.0273438,0.281738,-0.942871
-0.027771,0.279114,-0.944641
-0.0275269,0.277466,-0.948486
-0.0276489,0.27533,-0.948669
-0.0247803,0.276978,-0.943542
-0.0286255,0.296448,-0.945496
-0.0268555,0.280396,-0.941895
-0.027832,0.280945,-0.941772
-0.0280762,0.282471,-0.942261
-0.026062,0.266602,-0.943909
-0.0272217,0.280029,-0.94458
-0.026001,0.278564,-0.945679
-0.0280151,0.279602,-0.946655
-0.024353,0.281433,-0.942688
-0.026001,0.28302,-0.941467
-0.0263672,0.283325,-0.941772
-0.0259399,0.283936,-0.941467
-0.0281372,0.280945,-0.941345
-0.0228882,0.295166,-0.943604
-0.0269775,0.279907,-0.946838
-0.0278931,0.279602,-0.945679
-0.0291748,0.27948,-0.942261
-0.026123,0.279724,-0.941101
-0.0291138,0.284668,-0.940918
-0.0261841,0.281128,-0.944092
-0.026001,0.278931,-0.945557
-0.0245361,0.278809,-0.943909
-0.0270386,0.279419,-0.945435
-0.0281982,0.241455,-0.95459
-0.0227051,0.237366,-0.954651
-0.0270386,0.234741,-0.956482
-0.0269775,0.237244,-0.956665
-0.0252686,0.235229,-0.956665
-0.0265503,0.234497,-0.957031
-0.0273438,0.235962,-0.958923
-0.0278931,0.235718,-0.957397
-0.0262451,0.235718,-0.955017
-0.026062,0.234924,-0.959534
-0.0254517,0.236694,-0.956787
-0.0300903,0.238281,-0.955505
-0.0268555,0.23822,-0.95575
-0.0282593,0.240051,-0.95575
-0.0274048,0.234985,-0.955933
-0.0272827,0.234741,-0.954468
-0.0298462,0.235168,-0.958008
-0.0278931,0.236816,-0.956177
-0.0292969,0.237183,-0.958191
-0.0266113,0.237305,-0.955627
-0.0264893,0.237366,-0.956665
-0.0264893,0.238159,-0.954468
-0.0264893,0.234863,-0.958679
-0.0270996,0.235901,-0.95636
-0.0269775,0.233582,-0.956543
-0.0280151,0.235779,-0.957825
-0.0280151,0.235901,-0.957703
-0.0267944,0.23584,-0.955383
-0.0257568,0.237122,-0.957214
-0.0289917,0.236023,-0.957458
-0.0270386,0.236267,-0.956116
-0.0258789,0.237976,-0.956177
-0.0274658,0.237061,-0.956177
-0.0263672,0.234436,-0.956665
-0.0264893,0.234131,-0.958313
-0.026001,0.234253,-0.957764
-0.0246582,0.23761,-0.956116
-0.0269165,0.236633,-0.956299
-0.0255737,0.236755,-0.957153
-0.0262451,0.238708,-0.954468
-0.0241699,0.236389,-0.957886
-0.0252075,0.236145,-0.955872
-0.0272827,0.237122,-0.955627
-0.0263672,0.233521,-0.953491
-0.0251465,0.234497,-0.955872
-0.0269775,0.235535,-0.958618
-0.0262451,0.236084,-0.957336
-0.0266113,0.236572,-0.953857
-0.024292,0.235718,-0.954956
-0.024292,0.238647,-0.953735
-0.0272217,0.235962,-0.957031
-0.0257568,0.220154,-0.956787
-0.0278931,0.235291,-0.960693
-0.0250854,0.234497,-0.956543
-0.0266724,0.236267,-0.956177
-0.024231,0.235474,-0.956604
-0.0273438,0.235901,-0.954956
-0.0239868,0.237366,-0.953247
-0.0279541,0.239502,-0.954102
-0.027832,0.234802,-0.959167
-0.0254517,0.235046,-0.959656
-0.0269775,0.234131,-0.95813
-0.0263062,0.238037,-0.957275
-0.0269775,0.235657,-0.957642
-0.0262451,0.235657,-0.955139
-0.0262451,0.237,-0.953796
-0.0280762,0.236572,-0.956543
-0.0275269,0.237976,-0.956543
-0.0255737,0.236145,-0.955994
-0.0269165,0.235718,-0.955688
-0.0270386,0.238342,-0.955383
-0.0267944,0.234131,-0.956116
-0.0262451,0.234131,-0.957886
-0.0265503,0.23468,-0.955811
-0.0252075,0.234497,-0.955872
-0.0282593,0.23584,-0.954834
-0.0285645,0.237366,-0.957275
-0.0269165,0.235474,-0.957214
-0.024231,0.232422,-0.956848
-0.027771,0.234497,-0.957153
-0.0272217,0.236267,-0.955322
-0.0297852,0.234863,-0.955994
-0.0266113,0.237366,-0.95636
-0.0249023,0.237122,-0.953857
-0.0263062,0.23645,-0.956726
-0.0256958,0.237488,-0.958435
-0.0263062,0.235229,-0.957153
-0.0250854,0.234009,-0.959167
-0.0275269,0.234924,-0.957214
-0.0269165,0.23584,-0.957642
-0.0261841,0.237854,-0.957031
-0.0253296,0.234558,-0.954895
-0.0261841,0.234314,-0.957458
-0.0288086,0.236511,-0.956787
-0.0270996,0.23584,-0.954956
-0.0267334,0.235291,-0.955139
-0.026001,0.237061,-0.954468
-0.0274658,0.23761,-0.958374
-0.0263672,0.23468,-0.955322
-0.0264282,0.236877,-0.957764
-0.0291748,0.156494,-0.970581
-0.0253296,0.157349,-0.970337
-0.0249634,0.157898,-0.971375
-0.0237427,0.156433,-0.970703
-0.0221558,0.158813,-0.969421
-0.0253296,0.163452,-0.969666
-0.0263672,0.160583,-0.98291
-0.026062,0.159363,-0.967896
-0.0265503,0.158203,-0.966858
-0.0270996,0.158997,-0.969727
-0.0264893,0.157227,-0.972534
-0.027832,0.157043,-0.972107
-0.0270386,0.15741,-0.972107
-0.0253906,0.161377,-0.969116
-0.0238647,0.159424,-0.967163
-0.0276489,0.158752,-0.968628
-0.0252686,0.159119,-0.969849
-0.0274048,0.160339,-0.970154
-0.0231323,0.157471,-0.972107
-0.0258789,0.157166,-0.9729
-0.0241699,0.159241,-0.972168
-0.0270996,0.158203,-0.972412
-0.0258179,0.16095,-0.970703
-0.026062,0.159424,-0.971558
-0.0264893,0.159058,-0.970276
-0.0265503,0.157471,-0.971191
-0.0256348,0.158508,-0.971558
-0.0247192,0.157043,-0.971802
-0.026062,0.157776,-0.968628
-0.0255737,0.156799,-0.970276
-0.0272827,0.158325,-0.969238
-0.0255737,0.15863,-0.970154
-0.024231,0.159912,-0.972595
-0.026062,0.159485,-0.970642
-0.0264282,0.1604,-0.970215
-0.0255737,0.160278,-0.96936
-0.0250244,0.158081,-0.971924
-0.0249634,0.157654,-0.972107
-0.0233154,0.156921,-0.97229
-0.0250244,0.159607,-0.971863
-0.0263672,0.158875,-0.972534
-0.0266113,0.156982,-0.972351
-0.0268555,0.159119,-0.970093
-0.0263672,0.158203,-0.971191
-0.0263062,0.15741,-0.971008
-0.0250244,0.156433,-0.973572
-0.0269775,0.158936,-0.972473
-0.0271606,0.158875,-0.971924
-0.0253296,0.15918,-0.969543
-0.0270996,0.162659,-0.953796
-0.0271606,0.160828,-0.96814
-0.0256958,0.158569,-0.971436
-0.0269775,0.15918,-0.970825
-0.022583,0.158325,-0.9729
-0.0270996,0.157715,-0.973755
-0.0247803,0.160461,-0.972168
-0.0262451,0.160645,-0.968628
-0.0247803,0.161133,-0.969971
-0.0261841,0.162292,-0.968567
-0.0275879,0.160461,-0.969849
-0.0257568,0.160706,-0.972534
-0.0237427,0.156738,-0.972168
-0.0230103,0.158386,-0.972168
-0.0262451,0.158081,-0.9729
-0.0274048,0.161865,-0.969849
-0.024292,0.159241,-0.970581
-0.0250244,0.158997,-0.970581
-0.0248413,0.159851,-0.9729
-0.0249023,0.158325,-0.97113
-0.0256958,0.157532,-0.970703
-0.0245972,0.160828,-0.969849
-0.0235596,0.161133,-0.970276
-0.0264282,0.162842,-0.969116
-0.0257568,0.160706,-0.968262
-0.0282593,0.159668,-0.972717
-0.0253906,0.161987,-0.970825
-0.0228271,0.157471,-0.970215
-0.0248413,0.157959,-0.969971
-0.0253906,0.159546,-0.970947
-0.0247803,0.1604,-0.971558
-0.0274048,0.158875,-0.969849
-0.0231934,0.158142,-0.970215
-0.0253906,0.163086,-0.984131
-0.0255737,0.1604,-0.969177
-0.0256348,0.159241,-0.968872
-0.0264893,0.140686,-0.973694
-0.0259399,0.156494,-0.9729
-0.0251465,0.156433,-0.972961
-0.0247803,0.156738,-0.97168
-0.0248413,0.160095,-0.968689
-0.0270386,0.162598,-0.968933
-0.0281372,0.161682,-0.953857
-0.0274658,0.159607,-0.970337
-0.0247192,0.160828,-0.969788
-0.0274658,0.157715,-0.971069
-0.0245361,0.156921,-0.967407
-0.0254517,0.15741,-0.96991
-0.0265503,0.159729,-0.97229
-0.027771,0.158875,-0.969116
-0.0272827,0.159851,-0.970581
-0.0270386,0.085144,-0.976318
-0.0249634,0.0849609,-0.976746
-0.0266724,0.0841675,-0.976868
-0.0250244,0.083252,-0.977905
-0.0233765,0.0844727,-0.977417
-0.0269775,0.0849609,-0.97998
-0.0234375,0.0855713,-0.977966
-0.0241699,0.0852051,-0.976685
-0.0272217,0.0853882,-0.976379
-0.024292,0.0855103,-0.97583
-0.0241699,0.0839233,-0.978333
-0.0247803,0.0823975,-0.978516
-0.0246582,0.0828247,-0.976196
-0.0213623,0.0856934,-0.975708
-0.0250244,0.088501,-0.975098
-0.0229492,0.0853271,-0.979797
-0.0241699,0.0845337,-0.982544
-0.0250244,0.0845337,-0.979248
-0.0249634,0.085083,-0.975037
-0.0228271,0.0870361,-0.974487
-0.0266724,0.0864868,-0.975281
-0.0235596,0.0846558,-0.977112
-0.0237427,0.0844116,-0.97998
-0.0254517,0.085022,-0.980103
-0.0232544,0.0841064,-0.978394
-0.0233154,0.083374,-0.976746
-0.0255127,0.0853882,-0.976929
-0.0262451,0.0847168,-0.975281
-0.0241699,0.0853882,-0.977173
-0.024231,0.0845337,-0.979492
-0.0249634,0.0841675,-0.979736
-0.024353,0.0831909,-0.980591
-0.0245972,0.0836792,-0.976746
-0.0232544,0.0856934,-0.976562
-0.0249634,0.0858765,-0.975647
-0.024353,0.0869751,-0.980347
-0.0245361,0.0856934,-0.977783
-0.0249023,0.0848389,-0.977173
-0.0265503,0.0839233,-0.977051
-0.0252686,0.0856934,-0.975891
-0.0238647,0.085083,-0.977966
-0.0274658,0.0862427,-0.977417
-0.0247192,0.0842285,-0.974731
-0.026123,0.0855713,-0.979004
-0.0228882,0.0847778,-0.977478
-0.0254517,0.0859375,-0.978088
-0.0268555,0.0835571,-0.97998
-0.0228882,0.0831909,-0.979004
-0.0233765,0.0848999,-0.978333
-0.0231934,0.0859375,-0.97876
-0.0264893,0.086853,-0.976685
-0.0241699,0.0872803,-0.974304
-0.0264893,0.0865479,-0.974609
-0.024353,0.0849609,-0.977417
-0.0246582,0.0831909,-0.97876
-0.0237427,0.0842896,-0.976929
-0.024231,0.0836792,-0.975586
-0.0238647,0.0842896,-0.977661
-0.0267944,0.0827026,-0.975159
-0.0233765,0.0862427,-0.977417
-0.0263672,0.0861206,-0.976807
-0.0250854,0.0862427,-0.977966
-0.0237427,0.0823364,-0.976685
-0.0256348,0.0826416,-0.977722
-0.0250854,0.0827026,-0.981567
-0.0250854,0.0857544,-0.9776
-0.0237427,0.0834351,-0.978088
-0.0253906,0.085144,-0.976379
-0.0250244,0.0852661,-0.976074
-0.0255127,0.0842285,-0.977417
-0.0235596,0.083374,-0.975952
-0.0241089,0.0843506,-0.979675
-0.0244751,0.0817261,-0.979431
-0.0257568,0.0834961,-0.978638
-0.0248413,0.0835571,-0.978882
-0.0249023,0.0858765,-0.976685
-0.0244141,0.0860596,-0.976562
-0.0230713,0.0861206,-0.975891
-0.0262451,0.0835571,-0.978943
-0.0274048,0.0831299,-0.979797
-0.026123,0.0847778,-0.978882
-0.0232544,0.0841675,-0.975403
-0.0270386,0.0862427,-0.9776
-0.0258179,0.0862427,-0.975159
-0.0255737,0.0878906,-0.975647
-0.0244751,0.0857544,-0.975586
-0.0253906,0.0849609,-0.977722
-0.0246582,0.0845947,-0.979065
-0.0248413,0.0853882,-0.977539
-0.0265503,0.0872803,-0.976807
-0.024353,0.0848389,-0.97699
-0.0234375,0.0859985,-0.976196
-0.0270996,0.0858765,-0.977661
-0.0256348,0.0847778,-0.978577
-0.026123,0.0855103,-0.977417
-0.0248413,0.085022,-0.977905
-0.0266724,0.0853271,-0.977173
-0.0245361,0.0859375,-0.976868
-0.0251465,0.0840454,-0.978821
-0.0233765,0.0859985,-0.977356
-0.0248413,0.022583,-0.982849
-0.0230103,0.0198975,-0.980835
-0.0250244,0.0223999,-0.981445
-0.0245361,0.0215454,-0.982361
-0.0271606,0.024231,-0.982483
-0.0247192,0.0232544,-0.985657
-0.0236816,0.0230103,-0.983765
-0.0233765,0.024292,-0.982178
-0.0212402,0.0223389,-0.981567
-0.0230103,0.0229492,-0.984314
-0.0219116,0.0245361,-0.983582
-0.0246582,0.0222778,-0.983765
-0.0257568,0.0233765,-0.983521
-0.026062,0.0222168,-0.984009
-0.024292,0.0213013,-0.969055
-0.0261841,0.0214844,-0.980591
-0.0234375,0.0219116,-0.983643
-0.0250244,0.0229492,-0.98175
-0.0256348,0.0227661,-0.981384
-0.0251465,0.0230713,-0.983459
-0.0239258,0.0200806,-0.984619
-0.0253906,0.0245972,-0.984009
-0.0270386,0.0201416,-0.98175
-0.0266113,0.022522,-0.982239
-0.0267944,0.022522,-0.983337
-0.0259399,0.0217896,-0.982727
-0.0231934,0.0239868,-0.982056
-0.024231,0.024353,-0.999939
-0.0238037,0.0234985,-0.982849
-0.024292,0.0209961,-0.982239
-0.0234375,0.0231323,-0.982544
-0.0234985,0.0222168,-0.984375
-0.0228882,0.0222168,-0.982544
-0.0212402,0.0194092,-0.983582
-0.0256348,0.0223389,-0.982178
-0.0256348,0.0229492,-0.983459
-0.0271606,0.0239868,-0.983887
-0.0238647,0.0233154,-0.983582
-0.0237427,0.0220337,-0.983154
-0.024292,0.0246582,-0.983276
-0.0247192,0.0245972,-0.984375
-0.0256958,0.0218506,-0.983154
-0.0259399,0.0209351,-0.982666
-0.0247192,0.0217285,-0.98175
-0.0253296,0.0224609,-0.983765
-0.0231323,0.0239868,-0.984375
-0.024292,0.0256348,-0.983032
-0.0238037,0.0241089,-0.983398
-0.0248413,0.022522,-0.982544
-0.0247803,0.0236206,-0.982788
-0.0267944,0.0205078,-0.982361
-0.0256348,0.0214844,-0.983582
-0.0250854,0.0216675,-0.983093
-0.0259399,0.0211792,-0.983948
-0.0263672,0.0222168,-0.981445
-0.0272827,0.0236206,-0.981995
-0.0222168,0.0218506,-0.983582
-0.0230103,0.0230103,-0.981689
-0.024231,0.0229492,-0.987183
-0.022644,0.0238647,-0.984375
-0.0252075,0.0244141,-0.983887
-0.0266113,0.0204468,-0.969299
-0.0263062,0.0211792,-0.983765
-0.0248413,0.0247192,-0.968811
-0.0245361,0.0217896,-0.983704
-0.0249023,0.0230713,-0.985168
-0.0231323,0.0231934,-0.985779
-0.0249023,0.0230103,-0.983154
-0.024292,0.022522,-0.983276
-0.0241089,0.0238647,-0.984436
-0.0245972,0.0247803,-0.98291
-0.0254517,0.0205688,-0.985718
-0.0231934,0.0238037,-0.984314
-0.0249634,0.0215454,-0.981628
-0.0244751,0.0213623,-0.983643
-0.0245361,0.0235596,-0.984253
-0.0258179,0.0251465,-0.983337
-0.026001,0.0230103,-0.984802
-0.0255737,0.024353,-0.983276
-0.0231323,0.0234985,-0.983582
-0.0250854,0.0223389,-0.982178
-0.024353,0.022644,-0.983276
-0.0253296,0.0239258,-0.982849
-0.0267944,0.0236206,-0.984436
-0.0252686,0.0224609,-0.984619
-0.0247803,0.0220337,-0.98407
-0.0248413,0.0214844,-0.981934
-0.0222168,0.0241089,-0.98291
-0.022644,0.0239258,-0.983398
-0.0271606,0.0253296,-0.983459
-0.0262451,0.0209961,-0.983215
-0.0263672,0.0216675,-0.984253
-0.0256958,0.0203857,-0.985779
-0.0258789,0.0232544,-0.984253
-0.0252075,0.0237427,-0.982849
-0.0237427,0.0230713,-0.984924
-0.0236816,0.0220947,-0.983154
-0.0236816,0.022522,-0.982483
-0.0249023,0.0246582,-0.983643
-0.026123,0.0253296,-0.999878
-0.0180054,0.152466,-0.975586
-0.0183716,0.154419,-0.97168
-0.0184937,0.155334,-0.973206
-0.019043,0.153442,-0.970947
-0.0184937,0.153687,-0.972412
-0.0183105,0.155701,-0.973083
-0.0169067,0.155334,-0.973389
-0.017395,0.154297,-0.97345
-0.0179443,0.155945,-0.973694
-0.0169067,0.154907,-0.97467
-0.0171509,0.154846,-0.97229
-0.0308838,0.156189,-0.972107
-0.0180664,0.15509,-0.97522
-0.0178223,0.155945,-0.974487
-0.0180054,0.15509,-0.972046
-0.019165,0.156372,-0.973511
-0.0179443,0.154602,-0.972046
-0.017334,0.153564,-0.975159
-0.0142822,0.155823,-0.974609
-0.0163574,0.156311,-0.974365
-0.0170288,0.156555,-0.973938
-0.0162354,0.15509,-0.974854
-0.017334,0.155518,-0.973328
-0.0180054,0.154236,-0.971558
-0.0205078,0.153015,-0.973755
-0.0181274,0.154846,-0.97406
-0.0176392,0.153137,-0.973206
-0.0178833,0.153748,-0.971802
-0.0159912,0.153442,-0.972961
-0.0176392,0.155029,-0.972961
-0.0166626,0.153381,-0.971802
-0.0180054,0.155396,-0.973511
-0.0170898,0.154358,-0.973267
-0.0166626,0.154663,-0.973633
-0.0155029,0.15625,-0.97052
-0.0170898,0.153137,-0.972778
-0.0161133,0.156128,-0.973145
-0.015625,0.153442,-0.972778
-0.0186768,0.154419,-0.972595
-0.0159912,0.152588,-0.973633
-0.0165405,0.154907,-0.974182
-0.0150146,0.156555,-0.972412
-0.0187988,0.154236,-0.972961
-0.0181274,0.152954,-0.971008
-0.0172729,0.152954,-0.970581
-0.0177002,0.155579,-0.974487
-0.0160522,0.153442,-0.972839
-0.0178833,0.15564,-0.976746
-0.0180664,0.154907,-0.969604
-0.017395,0.152893,-0.970825
-0.0198364,0.154541,-0.971924
-0.0175171,0.155029,-0.972839
-0.0180664,0.155518,-0.971802
-0.0187988,0.15332,-0.972168
-0.0168457,0.155151,-0.973083
-0.0189819,0.153259,-0.971802
-0.0159302,0.154358,-0.973083
-0.0169067,0.154846,-0.969727
-0.0148926,0.154541,-0.972778
-0.0144043,0.155884,-0.970825
-0.017334,0.154236,-0.972168
-0.0162354,0.15448,-0.973267
-0.0136108,0.155273,-0.973633
-0.015686,0.154358,-0.974121
-0.0181274,0.153198,-0.972412
-0.0166626,0.154602,-0.972168
-0.0179443,0.156738,-0.972595
-0.015625,0.153687,-0.971802
-0.0154419,0.15271,-0.971008
-0.0167236,0.155457,-0.972534
-0.019165,0.155518,-0.972229
-0.0188599,0.156494,-0.973511
-0.0158081,0.154785,-0.972168
-0.0170898,0.156006,-0.971802
-0.0158081,0.153442,-0.970886
-0.0181274,0.152222,-0.970886
-0.0164185,0.155334,-0.972107
-0.0160522,0.153931,-0.97229
-0.0170288,0.154419,-0.969971
-0.0169067,0.154236,-0.971924
-0.0142212,0.155762,-0.971802
-0.0166016,0.15332,-0.9729
-0.0171509,0.154297,-0.9729
-0.0201416,0.15625,-0.971436
-0.0178223,0.156372,-0.973938
-0.0189209,0.155273,-0.972595
-0.0174561,0.154053,-0.972778
-0.0167236,0.154114,-0.973389
-0.0161133,0.153931,-0.971313
-0.0161743,0.155273,-0.974121
-0.0172119,0.153503,-0.9729
-0.0164185,0.155334,-0.969421
-0.0159912,0.153748,-0.973999
-0.0184326,0.155029,-0.972778
-0.0177612,0.155518,-0.971497
-0.0307007,0.155151,-0.97229
-0.0178833,0.155457,-0.972046
-0.015564,0.155334,-0.973755
-0.0182495,0.155457,-0.974304
-0.0184937,0.155945,-0.970703
-0.0217285,0.328003,-0.925171
-0.0220947,0.337219,-0.92572
-0.0376587,0.334351,-0.929993
-0.0239868,0.332947,-0.931946
-0.0212402,0.329041,-0.924438
-0.0305786,0.336975,-0.93335
-0.0247803,0.331421,-0.930664
-0.0219727,0.335876,-0.927612
-0.0214233,0.329712,-0.925171
-0.0253906,0.332886,-0.929993
-0.0349121,0.332703,-0.931458
-0.0297852,0.335266,-0.928833
-0.0245361,0.333862,-0.927002
-0.0292969,0.33374,-0.928833
-0.0274658,0.330688,-0.93103
-0.0265503,0.333069,-0.928711
-0.0266724,0.33136,-0.930298
-0.0270386,0.331909,-0.929626
-0.0278931,0.333862,-0.926758
-0.0283813,0.332397,-0.927734
-0.0252686,0.334473,-0.93158
-0.0217896,0.331665,-0.925842
-0.0253906,0.333923,-0.927185
-0.0308838,0.335815,-0.92981
-0.0266113,0.332458,-0.92865
-0.0264282,0.33075,-0.927673
-0.0288086,0.333801,-0.930542
-0.0284424,0.331787,-0.931274
-0.0253296,0.333923,-0.929565
-0.0247803,0.334045,-0.92804
-0.0257568,0.333008,-0.930176
-0.0265503,0.332642,-0.927551
-0.02771,0.33429,-0.92627
-0.0272217,0.333984,-0.926758
-0.0278931,0.332947,-0.928833
-0.0264282,0.333191,-0.932678
-0.0247803,0.33252,-0.927185
-0.0250854,0.330566,-0.928711
-0.0261841,0.331665,-0.929321
-0.0253906,0.331177,-0.92865
-0.0263672,0.334839,-0.928284
-0.0263672,0.332336,-0.927368
-0.0301514,0.334717,-0.929932
-0.0272827,0.334229,-0.924438
-0.0248413,0.332886,-0.928162
-0.0255127,0.330872,-0.932251
-0.0256958,0.333923,-0.928528
-0.0222778,0.333313,-0.927917
-0.0255127,0.331909,-0.92926
-0.0272217,0.332703,-0.93103
-0.0286255,0.334351,-0.930725
-0.0286255,0.335876,-0.926208
-0.0298462,0.333801,-0.929688
-0.0299072,0.333435,-0.927307
-0.0231934,0.329102,-0.929871
-0.0244141,0.332947,-0.927551
-0.0309448,0.335999,-0.929138
-0.0257568,0.331299,-0.929321
-0.0228271,0.332153,-0.927063
-0.0275269,0.332458,-0.929443
-0.0285034,0.332703,-0.929016
-0.0273438,0.333069,-0.927429
-0.026001,0.333435,-0.929626
-0.0234985,0.332092,-0.929077
-0.0276489,0.333618,-0.930115
-0.0292358,0.33429,-0.927612
-0.0296631,0.333252,-0.92804
-0.0266724,0.335388,-0.929443
-0.0241089,0.333191,-0.927185
-0.0258789,0.333069,-0.928589
-0.0270996,0.333862,-0.92804
-0.0272827,0.334045,-0.92627
-0.0255737,0.333374,-0.93103
-0.0263062,0.329651,-0.929016
-0.0267334,0.333984,-0.930054
-0.0247192,0.334717,-0.927124
-0.0244141,0.334839,-0.927917
-0.0244141,0.332764,-0.930176
-0.027832,0.332092,-0.929504
-0.0268555,0.333679,-0.928589
-0.03125,0.33197,-0.928284
-0.0258789,0.332581,-0.928894
-0.0261841,0.332214,-0.929443
-0.0272217,0.333923,-0.927002
-0.0253296,0.333191,-0.929138
-0.026001,0.334351,-0.92926
-0.0305176,0.334473,-0.930481
-0.0257568,0.331848,-0.928711
-0.0245361,0.332825,-0.926697
-0.0273438,0.332458,-0.927368
-0.0259399,0.332581,-0.927917
-0.0265503,0.330872,-0.925781
-0.0249023,0.333069,-0.930542
-0.0289307,0.331543,-0.92926
-0.0266113,0.335083,-0.928833
-0.0284424,0.333618,-0.927795
-0.0222778,0.33313,-0.927856
-0.0240479,0.333435,-0.92688
-0.0259399,0.331726,-0.928894
-0.0258789,0.333862,-0.930481
-0.024353,0.362427,-0.91626
-0.0252075,0.364319,-0.917786
-0.0258789,0.361511,-0.919067
-0.0274658,0.361267,-0.920776
-0.0254517,0.362976,-0.918213
-0.0270386,0.362854,-0.915833
-0.026123,0.364441,-0.91925
-0.0250244,0.362732,-0.921204
-0.0262451,0.363159,-0.917847
-0.0259399,0.363525,-0.91571
-0.0270996,0.364502,-0.917969
-0.0303345,0.36261,-0.918335
-0.027832,0.362671,-0.919434
-0.0269775,0.363098,-0.919434
-0.0263062,0.36322,-0.917175
-0.0273438,0.36084,-0.918884
-0.0270386,0.362427,-0.918335
-0.0256958,0.362305,-0.918396
-0.0267334,0.364075,-0.915955
-0.026062,0.362488,-0.921082
-0.0273438,0.363708,-0.919678
-0.0258789,0.363098,-0.918335
-0.0247192,0.364502,-0.916138
-0.0292969,0.365601,-0.920654
-0.0281372,0.365112,-0.918701
-0.026062,0.363037,-0.918213
-0.0253296,0.362671,-0.917542
-0.0253296,0.361023,-0.918152
-0.0255127,0.363403,-0.917358
-0.0256958,0.362244,-0.91864
-0.0279541,0.363647,-0.920288
-0.0287476,0.362427,-0.921265
-0.0278931,0.364319,-0.918274
-0.0281982,0.364502,-0.916748
-0.0266724,0.363953,-0.918213
-0.02771,0.363892,-0.919434
-0.0266113,0.359985,-0.918945
-0.0241699,0.363403,-0.914978
-0.0255737,0.362122,-0.91626
-0.0287476,0.364075,-0.919006
-0.0266724,0.363281,-0.919434
-0.0248413,0.362305,-0.918274
-0.02771,0.363342,-0.916565
-0.0270386,0.36438,-0.917542
-0.0276489,0.36499,-0.919434
-0.0270996,0.362,-0.915649
-0.0291748,0.363708,-0.917603
-0.0264893,0.363525,-0.916931
-0.0270386,0.364319,-0.917358
-0.0266724,0.362976,-0.91925
-0.024353,0.36377,-0.918457
-0.0234375,0.362244,-0.915588
-0.0239258,0.360718,-0.919861
-0.0264282,0.361572,-0.919373
-0.0296021,0.363159,-0.918518
-0.0281982,0.363037,-0.918213
-0.0266724,0.362671,-0.91864
-0.0293579,0.365173,-0.91803
-0.0233765,0.364014,-0.915588
-0.0263062,0.363708,-0.918762
-0.0278931,0.362854,-0.918274
-0.027832,0.363159,-0.918701
-0.0269165,0.362061,-0.918152
-0.0289307,0.363525,-0.916565
-0.0282593,0.363953,-0.919739
-0.0268555,0.362976,-0.918579
-0.0284424,0.361023,-0.917053
-0.0241699,0.363159,-0.91748
-0.0250854,0.364258,-0.91626
-0.0275269,0.363159,-0.917969
-0.026062,0.364441,-0.918579
-0.0275269,0.361877,-0.91864
-0.0279541,0.36377,-0.919495
-0.027832,0.363464,-0.917603
-0.0258179,0.361755,-0.916992
-0.0267944,0.363708,-0.917847
-0.0264282,0.363281,-0.915955
-0.0272217,0.363525,-0.917358
-0.0244751,0.361694,-0.918091
-0.0272217,0.363403,-0.918762
-0.0283813,0.361389,-0.917908
-0.0271606,0.364014,-0.918579
-0.0281372,0.36322,-0.916687
-0.0268555,0.364258,-0.919556
-0.0252075,0.361816,-0.916931
-0.0244141,0.362244,-0.916931
-0.0247803,0.36322,-0.918945
-0.0245361,0.364319,-0.919128
-0.026062,0.362549,-0.916626
-0.0256958,0.362183,-0.92041
-0.0291138,0.363098,-0.920776
-0.0257568,0.362488,-0.918091
-0.0267944,0.363281,-0.918335
-0.0281982,0.362549,-0.920471
-0.0270996,0.364014,-0.92041
-0.0275879,0.363159,-0.918457
-0.0244141,0.364136,-0.919556
-0.0244751,0.363525,-0.921265
-0.0269165,0.362305,-0.918335
-0.0245361,0.361938,-0.918762
-0.0280151,0.412292,-0.897339
-0.0265503,0.411438,-0.895752
-0.0271606,0.415222,-0.895752
-0.0283203,0.415039,-0.901245
-0.0283813,0.41156,-0.895935
-0.0289917,0.411926,-0.899658
-0.0274658,0.411255,-0.897217
-0.0270996,0.412598,-0.896606
-0.0286255,0.412476,-0.899048
-0.0269165,0.41217,-0.899536
-0.0261841,0.412354,-0.897888
-0.0291138,0.414917,-0.897095
-0.0291138,0.415344,-0.898987
-0.0303955,0.412903,-0.897095
-0.0298462,0.41095,-0.898987
-0.026001,0.411133,-0.89624
-0.0266113,0.410034,-0.895691
-0.0236206,0.411865,-0.899109
-0.0262451,0.411987,-0.898315
-0.0274658,0.411072,-0.897827
-0.02948,0.413086,-0.896606
-0.0289307,0.412842,-0.896484
-0.0274658,0.412842,-0.896545
-0.0267334,0.412109,-0.89624
-0.0272217,0.412354,-0.898315
-0.0249634,0.412415,-0.897095
-0.02771,0.413513,-0.898438
-0.0281982,0.414429,-0.899597
-0.0269775,0.410767,-0.900024
-0.0279541,0.412537,-0.898682
-0.0302124,0.410156,-0.894592
-0.0273438,0.414673,-0.896729
-0.0267334,0.410278,-0.897278
-0.0274048,0.41156,-0.897827
-0.0286255,0.411743,-0.89856
-0.0288696,0.411072,-0.896057
-0.027771,0.413513,-0.897095
-0.0300293,0.412842,-0.899109
-0.0288086,0.412354,-0.897217
-0.0286865,0.412109,-0.896179
-0.0299683,0.412109,-0.896179
-0.0280762,0.41272,-0.897583
-0.02771,0.411926,-0.896545
-0.0245361,0.412781,-0.897522
-0.0245972,0.412598,-0.898071
-0.0254517,0.413696,-0.897583
-0.0251465,0.413025,-0.894165
-0.0251465,0.413391,-0.897339
-0.0283203,0.412781,-0.899048
-0.0286865,0.411011,-0.89679
-0.0284424,0.412048,-0.897339
-0.0289917,0.414368,-0.897522
-0.0307617,0.413208,-0.898438
-0.0275879,0.411255,-0.898376
-0.0263672,0.419434,-0.897583
-0.0194092,0.40094,-0.892578
-0.0361938,0.422485,-0.900085
-0.0385742,0.41156,-0.900635
-0.0235596,0.411072,-0.893372
-0.0252075,0.413696,-0.893921
-0.0272217,0.418518,-0.897949
-0.0234985,0.409241,-0.898804
-0.0251465,0.414185,-0.894409
-0.0291138,0.412231,-0.896667
-0.0462036,0.415283,-0.898376
-0.0307617,0.413818,-0.895996
-0.0267944,0.413391,-0.89563
-0.0241089,0.411133,-0.897644
-0.0263062,0.411011,-0.897583
-0.0275269,0.413391,-0.899536
-0.0272827,0.413025,-0.896423
-0.0299072,0.413757,-0.896606
-0.0328369,0.411438,-0.898926
-0.0276489,0.41333,-0.898682
-0.0276489,0.412537,-0.894958
-0.0285645,0.412537,-0.89801
-0.0302124,0.412109,-0.898132
-0.0273438,0.41394,-0.897217
-0.029541,0.414673,-0.897034
-0.0304565,0.412659,-0.897217
-0.0305176,0.411377,-0.89679
-0.0274658,0.413025,-0.899109
-0.0255737,0.41333,-0.895935
-0.0259399,0.414734,-0.896057
-0.0296021,0.412659,-0.898621
-0.0281982,0.412598,-0.897827
-0.0269165,0.412048,-0.897461
-0.0288696,0.412903,-0.898193
-0.029541,0.413208,-0.897034
-0.029541,0.412292,-0.896606
-0.0270996,0.411621,-0.899719
-0.0286255,0.413025,-0.896484
-0.0266113,0.412781,-0.894897
-0.0263062,0.414062,-0.896606
-0.0285645,0.413208,-0.897827
-0.027771,0.412964,-0.897095
-0.0289917,0.411865,-0.89447
-0.0267944,0.411987,-0.895813
-0.026123,0.414551,-0.897095
-0.0305176,0.41394,-0.8974
-0.0287476,0.480469,-0.865295
-0.0307617,0.481079,-0.863403
-0.0288696,0.4776,-0.864807
-0.0286865,0.477783,-0.867432
-0.0270386,0.475952,-0.864258
-0.0293579,0.479187,-0.865173
-0.0282593,0.479614,-0.862549
-0.0296631,0.48175,-0.867981
-0.0264893,0.4776,-0.866211
-0.0289307,0.479126,-0.86554
-0.0280762,0.479614,-0.862061
-0.0319214,0.479187,-0.867432
-0.0168457,0.478638,-0.86438
-0.0290527,0.480225,-0.863281
-0.0286865,0.478088,-0.863953
-0.0323486,0.481262,-0.868713
-0.0303955,0.481812,-0.866821
-0.0287476,0.478882,-0.865906
-0.0284424,0.478699,-0.864685
-0.0287476,0.478455,-0.864563
-0.0296631,0.480408,-0.86731
-0.0294189,0.478882,-0.864563
-0.027832,0.478821,-0.865295
-0.0290527,0.478943,-0.864685
-0.0292358,0.479858,-0.864868
-0.0308838,0.479614,-0.863159
-0.0307617,0.481445,-0.865601
-0.0305786,0.479187,-0.867004
-0.029541,0.480347,-0.863281
-0.0284424,0.481812,-0.86554
-0.0285645,0.480225,-0.864502
-0.026123,0.480652,-0.865662
-0.0293579,0.477905,-0.868286
-0.0272217,0.48053,-0.86615
-0.0299683,0.479919,-0.865479
-0.0302124,0.477173,-0.863342
-0.0266724,0.47998,-0.867554
-0.0285645,0.477722,-0.867493
-0.0279541,0.478699,-0.86438
-0.0302734,0.478821,-0.865234
-0.0303955,0.479614,-0.864746
-0.0305786,0.479797,-0.865295
-0.0305786,0.480957,-0.866089
-0.0301514,0.478821,-0.864685
-0.0303955,0.481018,-0.864197
-0.0258179,0.477905,-0.866028
-0.0269775,0.479919,-0.865173
-0.0285034,0.480774,-0.868591
-0.0298462,0.480225,-0.863342
-0.0321045,0.479797,-0.867798
-0.0303955,0.477966,-0.864868
-0.0307617,0.477783,-0.867859
-0.0288696,0.478271,-0.866333
-0.0292358,0.480286,-0.866333
-0.02948,0.480652,-0.862915
-0.0285645,0.481201,-0.864258
-0.0274658,0.478088,-0.864685
-0.0299683,0.479797,-0.867188
-0.0310059,0.480469,-0.864563
-0.02771,0.479492,-0.865417
-0.0328369,0.480042,-0.866821
-0.0308838,0.47699,-0.866699
-0.0267944,0.479309,-0.86322
-0.02771,0.480408,-0.863037
-0.0266724,0.479858,-0.86676
-0.0287476,0.478455,-0.866394
-0.03125,0.480591,-0.866089
-0.02771,0.478943,-0.866577
-0.0294189,0.477905,-0.865479
-0.0288086,0.481262,-0.865784
-0.0290527,0.477051,-0.866699
-0.0270996,0.477051,-0.867065
-0.0281372,0.478577,-0.864319
-0.0308228,0.480408,-0.864502
-0.0307617,0.480042,-0.867126
-0.027771,0.477295,-0.864624
-0.0271606,0.477478,-0.863831
-0.0292969,0.477112,-0.863037
-0.0286865,0.480713,-0.865906
-0.0280762,0.479431,-0.866821
-0.0261841,0.477478,-0.868103
-0.0308838,0.479126,-0.863647
-0.0309448,0.479431,-0.865234
-0.0309448,0.478943,-0.865967
-0.0290527,0.477417,-0.864868
-0.0297241,0.481445,-0.865051
-0.0266113,0.479492,-0.865784
-0.0272827,0.480347,-0.864075
-0.0305176,0.478516,-0.865601
-0.0305176,0.479126,-0.864197
-0.0298462,0.479126,-0.864319
-0.0270996,0.479553,-0.86377
-0.0289307,0.48175,-0.865234
-0.02948,0.47998,-0.868469
-0.0262451,0.478516,-0.867493
-0.0279541,0.479675,-0.865112
-0.0292358,0.479126,-0.863403
-0.029541,0.479614,-0.864563
-0.0293579,0.477661,-0.863892
-0.0261841,0.480103,-0.863953
-0.0265503,0.545654,-0.824341
-0.026123,0.546936,-0.828247
-0.0275269,0.545288,-0.827393
-0.0288086,0.545776,-0.823792
-0.0263672,0.546448,-0.82489
-0.0300903,0.544189,-0.82605
-0.0328369,0.546387,-0.828186
-0.0301514,0.544312,-0.812561
-0.0267334,0.545044,-0.825439
-0.0282593,0.54718,-0.825195
-0.0286865,0.544983,-0.826233
-0.0279541,0.543152,-0.828491
-0.0285034,0.54303,-0.826233
-0.031311,0.546509,-0.827759
-0.0318604,0.546204,-0.826172
-0.0297852,0.544373,-0.825317
-0.0311279,0.545166,-0.827515
-0.0307617,0.544556,-0.828491
-0.0273438,0.546631,-0.825562
-0.0296021,0.548401,-0.826172
-0.0300293,0.544739,-0.828125
-0.0293579,0.542786,-0.827576
-0.0281372,0.533813,-0.826477
-0.0280151,0.544739,-0.821106
-0.0294189,0.547241,-0.827515
-0.0302124,0.543945,-0.827209
-0.0280151,0.545105,-0.82605
-0.0288086,0.542053,-0.826233
-0.0324097,0.546936,-0.828552
-0.0294189,0.544128,-0.825378
-0.0258789,0.544556,-0.827209
-0.0296021,0.546814,-0.828247
-0.02771,0.545776,-0.824768
-0.0253296,0.544739,-0.824036
-0.0287476,0.547607,-0.825806
-0.0280151,0.545044,-0.826904
-0.0270386,0.544067,-0.825806
-0.0279541,0.545898,-0.824219
-0.0296021,0.545288,-0.825195
-0.0297852,0.544617,-0.824768
-0.0297852,0.542297,-0.823486
-0.0300293,0.545593,-0.824707
-0.0301514,0.546814,-0.827271
-0.0289917,0.54425,-0.828552
-0.0282593,0.545105,-0.827209
-0.026001,0.545776,-0.824951
-0.0324097,0.545837,-0.825317
-0.0303955,0.544922,-0.825562
-0.029541,0.545654,-0.826233
-0.0290527,0.544739,-0.826294
-0.0305176,0.544067,-0.826782
-0.0301514,0.544617,-0.826416
-0.0263672,0.545288,-0.824158
-0.026123,0.543762,-0.824829
-0.03125,0.546326,-0.827759
-0.0294189,0.546997,-0.824158
-0.0285034,0.544312,-0.824463
-0.0281372,0.546082,-0.825317
-0.0305176,0.543701,-0.827209
-0.0292969,0.543335,-0.827087
-0.029541,0.544556,-0.824341
-0.0299072,0.547791,-0.824463
-0.0289307,0.542603,-0.825623
-0.0310669,0.545654,-0.826477
-0.0285645,0.545471,-0.823853
-0.0272827,0.545105,-0.825989
-0.0320435,0.544922,-0.825439
-0.029541,0.545959,-0.824036
-0.0299683,0.54303,-0.839722
-0.0310059,0.543823,-0.826172
-0.029541,0.547607,-0.822876
-0.0285034,0.544617,-0.823425
-0.0270386,0.545105,-0.826111
-0.0261841,0.544617,-0.824646
-0.0265503,0.54364,-0.821838
-0.0336914,0.548401,-0.826599
-0.0181885,0.546509,-0.825378
-0.0247192,0.543335,-0.821167
-0.0310059,0.545593,-0.825623
-0.0339966,0.545654,-0.812866
-0.0288696,0.544373,-0.825073
-0.0294189,0.548706,-0.825134
-0.0161133,0.545898,-0.828369
-0.027832,0.542358,-0.825134
-0.0266113,0.547119,-0.822632
-0.0306396,0.545959,-0.822083
-0.0300903,0.544739,-0.824097
-0.0280762,0.545898,-0.826782
-0.0305176,0.545349,-0.826355
-0.031311,0.547241,-0.822266
-0.0282593,0.546448,-0.826477
-0.0275269,0.548096,-0.824951
-0.0269775,0.54248,-0.825562
-0.0278931,0.548157,-0.825989
-0.0280151,0.547241,-0.824158
-0.031311,0.546021,-0.826416
-0.031311,0.545227,-0.825134
-0.0255737,0.545288,-0.8255
-0.0263672,0.544861,-0.825928
-0.0303955,0.544189,-0.823608
-0.0283203,0.669617,-0.738708
-0.0297852,0.670715,-0.737854
-0.0274658,0.666504,-0.737854
-0.0296021,0.664246,-0.738281
-0.0308838,0.668091,-0.737122
-0.0279541,0.669373,-0.739929
-0.0297241,0.668701,-0.737305
-0.0275879,0.664185,-0.737183
-0.0325317,0.667114,-0.737183
-0.0304565,0.669678,-0.735901
-0.0265503,0.669495,-0.738831
-0.0302124,0.667908,-0.741028
-0.0280151,0.664917,-0.737671
-0.0288086,0.66748,-0.735168
-0.0279541,0.667175,-0.737305
-0.0264282,0.669006,-0.736084
-0.02948,0.668396,-0.740112
-0.0286255,0.665833,-0.737244
-0.0299072,0.664368,-0.73645
-0.0283203,0.668701,-0.738342
-0.0285034,0.669556,-0.735107
-0.027832,0.667297,-0.737549
-0.0283203,0.666321,-0.739197
-0.0317993,0.672363,-0.73468
-0.0305176,0.668518,-0.735596
-0.0263062,0.66925,-0.736023
-0.0275879,0.667236,-0.738586
-0.02948,0.669189,-0.736328
-0.0296631,0.668335,-0.73584
-0.0276489,0.66626,-0.736572
-0.0284424,0.667358,-0.737549
-0.0301514,0.665283,-0.738525
-0.0288696,0.66864,-0.739319
-0.0306396,0.668945,-0.738037
-0.0264282,0.668945,-0.73584
-0.0296021,0.666443,-0.738159
-0.0297852,0.66748,-0.736694
-0.0302124,0.668335,-0.74054
-0.0299683,0.669189,-0.73877
-0.0302734,0.670776,-0.739258
-0.0300293,0.664307,-0.737671
-0.0270996,0.667725,-0.737244
-0.0286255,0.66748,-0.73938
-0.0299683,0.668701,-0.738342
-0.02948,0.66748,-0.738342
-0.0282593,0.665955,-0.734985
-0.0310669,0.665039,-0.738159
-0.0272827,0.667908,-0.737366
-0.0261841,0.669128,-0.735718
-0.026062,0.669067,-0.738953
-0.0289307,0.668091,-0.739258
-0.0297241,0.667358,-0.738586
-0.0297852,0.668152,-0.736267
-0.0281372,0.667358,-0.738525
-0.0303955,0.667175,-0.739136
-0.0270996,0.66748,-0.739258
-0.0284424,0.668335,-0.737
-0.0298462,0.666565,-0.737915
-0.0316162,0.667053,-0.739502
-0.0287476,0.666321,-0.738281
-0.0310059,0.667236,-0.73938
-0.0297852,0.669312,-0.739075
-0.0287476,0.665222,-0.735596
-0.0266113,0.666382,-0.738647
-0.0263672,0.666748,-0.739197
-0.0286865,0.668091,-0.739258
-0.0288696,0.668579,-0.738953
-0.0298462,0.668335,-0.73761
-0.0272827,0.668579,-0.736694
-0.0292969,0.665039,-0.737427
-0.0296021,0.668091,-0.737
-0.0276489,0.669189,-0.73822
-0.024353,0.667603,-0.737427
-0.0281372,0.664612,-0.737488
-0.0293579,0.667053,-0.736145
-0.0303955,0.666565,-0.735718
-0.0289917,0.667908,-0.737305
-0.0311279,0.667419,-0.739746
-0.0292358,0.66626,-0.740295
-0.0297241,0.669006,-0.73877
-0.0309448,0.667358,-0.734436
-0.0283813,0.666748,-0.734985
-0.0273438,0.666138,-0.737183
-0.0281982,0.666016,-0.736877
-0.02771,0.669373,-0.736938
-0.0310669,0.66748,-0.737793
-0.0292969,0.667358,-0.737183
-0.0297852,0.664673,-0.740112
-0.027771,0.66687,-0.738892
-0.0272827,0.668701,-0.735779
-0.0299072,0.668518,-0.735352
-0.0305176,0.668518,-0.73999
-0.0282593,0.666809,-0.737244
-0.0285034,0.668579,-0.735718
-0.0308228,0.67041,-0.734924
-0.029541,0.670715,-0.733826
-0.0270996,0.667175,-0.733398
-0.0291748,0.663269,-0.737549
-0.0284424,0.668579,-0.738831
-0.0297852,0.669312,-0.737793
-0.0287476,0.770142,-0.630981
-0.02771,0.768188,-0.632385
-0.0292358,0.764343,-0.633301
-0.0283203,0.763855,-0.633606
-0.0286865,0.765991,-0.632141
-0.0284424,0.76947,-0.634399
-0.0310059,0.768555,-0.63092
-0.0297852,0.767151,-0.632935
-0.0297852,0.766418,-0.634155
-0.0288086,0.766602,-0.63385
-0.0283203,0.769104,-0.635742
-0.031311,0.767029,-0.633057
-0.0290527,0.76886,-0.632019
-0.0293579,0.765991,-0.63324
-0.0286255,0.765991,-0.631836
-0.0254517,0.762817,-0.633179
-0.0280151,0.764343,-0.632385
-0.0255737,0.767822,-0.633118
-0.0296631,0.765991,-0.63324
-0.0313721,0.768677,-0.63269
-0.0326538,0.767456,-0.633728
-0.0298462,0.767883,-0.634033
-0.0255737,0.765503,-0.632324
-0.0298462,0.765747,-0.632629
-0.0266724,0.766479,-0.632629
-0.02771,0.767456,-0.633118
-0.0280151,0.766602,-0.633118
-0.029541,0.767395,-0.633789
-0.0316772,0.766113,-0.637207
-0.0289307,0.765625,-0.63208
-0.0276489,0.766479,-0.632446
-0.0296021,0.767151,-0.634888
-0.0321655,0.767822,-0.632507
-0.0285034,0.769165,-0.63092
-0.0268555,0.766602,-0.631897
-0.0291748,0.766785,-0.635986
-0.0272217,0.765503,-0.63562
-0.0280151,0.767822,-0.631348
-0.0289307,0.770752,-0.633484
-0.0299683,0.768188,-0.634583
-0.027771,0.766724,-0.635742
-0.0456543,0.766785,-0.633789
-0.0305786,0.769348,-0.632385
-0.0270996,0.768921,-0.631348
-0.0308838,0.766724,-0.632141
-0.02948,0.750793,-0.637573
-0.0286255,0.766052,-0.632446
-0.0281982,0.76532,-0.63269
-0.0307617,0.767029,-0.633179
-0.0292358,0.766174,-0.632935
-0.029541,0.766846,-0.634094
-0.0310669,0.767578,-0.633362
-0.0253906,0.769653,-0.631714
-0.0299072,0.770203,-0.632202
-0.0309448,0.765991,-0.635437
-0.0287476,0.766602,-0.631531
-0.0302734,0.764771,-0.632446
-0.0286255,0.766907,-0.63324
-0.0289307,0.765259,-0.635193
-0.0300293,0.767578,-0.632446
-0.0272827,0.76709,-0.631348
-0.0299683,0.76709,-0.633057
-0.0299683,0.767334,-0.634888
-0.0322876,0.765259,-0.633789
-0.0315552,0.766296,-0.631226
-0.0299683,0.76886,-0.630554
-0.0298462,0.768799,-0.634338
-0.029541,0.766968,-0.63385
-0.0310669,0.76532,-0.634766
-0.0296021,0.766663,-0.632935
-0.0270386,0.769104,-0.631836
-0.0272827,0.764526,-0.632568
-0.0289307,0.766724,-0.636047
-0.0280151,0.767334,-0.63562
-0.0267944,0.768555,-0.631714
-0.0308838,0.770691,-0.633179
-0.0296021,0.766418,-0.632507
-0.0279541,0.766174,-0.631104
-0.0305176,0.767456,-0.63147
-0.0300903,0.768311,-0.63208
-0.0288086,0.766541,-0.634033
-0.0271606,0.765991,-0.636536
-0.0322876,0.7677,-0.634094
-0.0316162,0.766479,-0.631409
-0.0288086,0.765808,-0.632446
-0.0283813,0.766663,-0.634888
-0.0297241,0.765015,-0.633911
-0.0452271,0.765991,-0.634399
-0.0290527,0.769897,-0.633972
-0.0267944,0.770386,-0.632324
-0.0276489,0.765991,-0.633423
-0.0294189,0.766479,-0.633179
-0.0311279,0.766968,-0.631592
-0.0166016,0.76886,-0.633301
-0.0292969,0.767822,-0.632568
-0.0267944,0.765137,-0.631531
-0.0307617,0.766418,-0.634399
-0.0290527,0.765259,-0.632629
-0.0282593,0.767212,-0.632507
-0.0306396,0.766235,-0.635254
-0.0285034,0.899597,-0.436462
-0.027771,0.896484,-0.43634
-0.0303345,0.896667,-0.422058
-0.0268555,0.895386,-0.432983
-0.0321045,0.899292,-0.436462
-0.0271606,0.897156,-0.434326
-0.0266724,0.899963,-0.434021
-0.0457764,0.899109,-0.433411
-0.031311,0.898499,-0.436035
-0.0280151,0.901794,-0.433899
-0.0281372,0.898315,-0.435669
-0.0303345,0.897522,-0.437256
-0.0283203,0.897095,-0.434998
-0.0320435,0.897461,-0.435608
-0.0307007,0.89801,-0.437012
-0.0283813,0.895996,-0.437439
-0.0291748,0.897217,-0.43634
-0.0305786,0.897095,-0.435486
-0.0272827,0.897583,-0.434021
-0.02948,0.897339,-0.435364
-0.0283813,0.89679,-0.434143
-0.0302734,0.900085,-0.433777
-0.0296021,0.900208,-0.434998
-0.0286865,0.899048,-0.434631
-0.0296021,0.898132,-0.434326
-0.0317993,0.897522,-0.437073
-0.0300903,0.895264,-0.437378
-0.029541,0.89563,-0.436646
-0.0294189,0.897888,-0.435547
-0.0301514,0.899109,-0.437134
-0.0291138,0.899597,-0.434021
-0.027771,0.900208,-0.43158
-0.0314331,0.901245,-0.431702
-0.0300903,0.899658,-0.433472
-0.0283813,0.901611,-0.429932
-0.0291748,0.901489,-0.431335
-0.0309448,0.901672,-0.432739
-0.0283813,0.897461,-0.433228
-0.0297241,0.898621,-0.43457
-0.0311279,0.897522,-0.437988
-0.0281372,0.896545,-0.438049
-0.0291748,0.898193,-0.433411
-0.0444336,0.898438,-0.438049
-0.031189,0.898621,-0.43396
-0.0274658,0.898499,-0.432739
-0.0288696,0.899231,-0.434082
-0.0310059,0.89679,-0.436401
-0.0283203,0.897766,-0.435181
-0.026062,0.895081,-0.437805
-0.0291748,0.894775,-0.43988
-0.0285645,0.895386,-0.423889
-0.0300903,0.895264,-0.438965
-0.0287476,0.898804,-0.435791
-0.0283203,0.899292,-0.434875
-0.0305786,0.901062,-0.435608
-0.0276489,0.89978,-0.434082
-0.02948,0.898499,-0.436401
-0.0303955,0.897766,-0.437988
-0.02771,0.897278,-0.435913
-0.029541,0.8974,-0.438477
-0.0303955,0.898438,-0.437134
-0.0266113,0.895508,-0.435486
-0.0294189,0.89801,-0.434998
-0.0325317,0.901062,-0.437439
-0.0305176,0.900635,-0.435547
-0.0294189,0.897339,-0.4375
-0.0315552,0.897034,-0.437744
-0.0282593,0.897339,-0.438049
-0.0288086,0.894897,-0.440735
-0.0319824,0.895081,-0.438049
-0.0293579,0.895874,-0.437378
-0.0293579,0.895325,-0.439697
-0.0298462,0.89801,-0.436279
-0.0307617,0.898315,-0.434448
-0.0305786,0.898376,-0.452148
-0.02948,0.896912,-0.437439
-0.0297852,0.896423,-0.434509
-0.0274048,0.897217,-0.422119
-0.0322876,0.897705,-0.435425
-0.0305786,0.898132,-0.436768
-0.0278931,0.897461,-0.43396
-0.0289917,0.897217,-0.434021
-0.0314331,0.898865,-0.436523
-0.0287476,0.897095,-0.434448
-0.0280762,0.896423,-0.435852
-0.0304565,0.898682,-0.437195
-0.0321655,0.898804,-0.436462
-0.0310059,0.899109,-0.437439
-0.0292969,0.898926,-0.436035
-0.0318604,0.898315,-0.435608
-0.0292358,0.898987,-0.433838
-0.0281982,0.899048,-0.437561
-0.0283813,0.901672,-0.435852
-0.027771,0.898865,-0.435486
-0.027771,0.89856,-0.437134
-0.0283203,0.896545,-0.43811
-0.031311,0.897705,-0.439148
-0.029541,0.898071,-0.438599
-0.0286865,0.895569,-0.438232
-0.0299072,0.897766,-0.436401
-0.0283813,1.00531,-0.00506592
-0.0269165,1.00281,-0.00512695
-0.0265503,1.00269,-0.00482178
-0.0270996,1.00055,-0.00524902
-0.0267944,1.00385,-0.00592041
-0.02771,1.00299,-0.00616455
-0.0287476,1.00226,-0.00549316
-0.0270996,1.00317,-0.00427246
-0.0296631,1.0025,-0.00439453
-0.029541,1.0036,-0.00512695
-0.0288696,1.00732,-0.00592041
-0.0266113,1.0047,-0.00366211
-0.0302734,1.00092,-0.00476074
-0.0297852,1.00311,-0.00524902
-0.0303955,1.00452,-0.00531006
-0.0282593,1.00385,-0.00476074
-0.0292358,1.00592,-0.00628662
-0.0302734,1.00385,-0.00579834
-0.0305786,1.00146,-0.0067749
-0.0270996,1.00153,-0.00726318
-0.0292358,1.00299,-0.00518799
-0.0269165,1.0036,-0.00714111
-0.0300293,1.00262,-0.00738525
-0.027832,1.00439,-0.00860596
-0.0289307,1.0025,-0.00311279
-0.0279541,1.00171,-0.00720215
-0.0283203,1.00482,-0.00714111
-0.0284424,1.00262,-0.00482178
-0.0289917,1.00482,-0.00653076
-0.0302734,1.00201,-0.00628662
-0.0279541,1.00238,-0.00604248
-0.0273438,1.00397,-0.0078125
-0.0282593,1.00256,-0.00695801
-0.0305176,1.00354,-0.0055542
-0.0275879,1.00372,-0.00665283
-0.0272217,1.00317,-0.00646973
-0.0296021,1.00323,-0.00549316
-0.0305176,1.0036,-0.00415039
-0.0288086,1.00208,-0.00500488
-0.0276489,1.00305,-0.00518799
-0.026123,1.00403,-0.0067749
-0.0309448,1.00232,-0.00543213
-0.0307617,1.00366,-0.00311279
-0.0296021,1.0025,-0.00482178
-0.0270996,1.0014,-0.00506592
-0.0280762,1.00305,-0.00579834
-0.0288696,1.00397,-0.00305176
-0.0298462,1.00232,-0.00408936
-0.0289307,1.00342,-0.00415039
-0.0282593,1.00519,-0.00482178
-0.0287476,1.00305,-0.00683594
-0.0297852,1.00494,-0.00384521
-0.0280151,1.0022,-0.00604248
-0.0283813,1.0033,-0.00750732
-0.0286865,1.00195,-0.00701904
-0.0282593,1.00317,-0.00579834
-0.0266113,1.00171,-0.00524902
-0.0281982,1.00452,-0.0067749
-0.0294189,1.00238,-0.00500488
-0.0264893,1.00336,-0.00524902
-0.0281372,1.00201,-0.00494385
-0.0275879,1.005,-0.00378418
-0.0300903,1.00342,-0.00378418
-0.0285645,1.00439,-0.00549316
-0.0246582,1.00262,-0.00628662
-0.029541,1.00378,-0.00384521
-0.02771,1.00244,-0.00506592
-0.0298462,1.00122,-0.00512695
-0.0284424,1.00299,-0.00610352
-0.0265503,1.00385,-0.00549316
-0.0297241,1.00452,-0.00714111
-0.0305176,1.00446,-0.00500488
-0.0287476,1.00232,-0.00378418
-0.0270996,1.00519,-0.00512695
-0.0283813,1.0022,-0.0043335
-0.0288696,1.00415,-0.0055542
-0.0305176,1.00293,-0.0045166
-0.0294189,1.00116,-0.00585938
-0.0270996,1.00531,-0.00738525
-0.0266113,1.00269,-0.00421143
-0.0266113,1.00305,-0.00286865
-0.031311,1.00458,-0.00268555
-0.0279541,1.00482,-0.00524902
-0.0294189,1.00311,-0.00579834
-0.027832,1.00293,-0.00799561
-0.0293579,1.00079,-0.00726318
-0.0288086,1.00317,-0.00494385
-0.027771,1.00214,-0.0045166
-0.0270386,1.00208,-0.00567627
-0.0283813,1.00385,-0.00311279
-0.0263672,1.00208,-0.00592041
-0.0274658,1.00336,-0.00396729
-0.0281982,1.00378,-0.00518799
-0.0269775,1.0022,-0.00463867
-0.0275879,1.00427,-0.00286865
-0.0280762,1.0033,-0.00518799
-0.0305176,1.00427,-0.00476074
-0.0273438,1.00134,-0.00537109
-0.0272827,1.00293,-0.00415039
-0.0286255,1.0033,-0.0045166
-0.0274658,0.967407,0.286682
-0.0270996,0.968079,0.289978
-0.0284424,0.967712,0.290649
-0.0276489,0.967651,0.289856
-0.0258179,0.964966,0.291199
-0.0268555,0.964478,0.287109
-0.0247803,0.965515,0.288452
-0.0246582,0.965454,0.288513
-0.0262451,0.965027,0.289856
-0.0270996,0.965698,0.287415
-0.0286865,0.964539,0.287354
-0.0267334,0.967346,0.286865
-0.024292,0.966675,0.286865
-0.0251465,0.965332,0.287048
-0.0278931,0.965698,0.286194
-0.0269165,0.965576,0.285767
